#
# Results on Wednesday July 26 2017 14:02:59 UTC.
# USER AGENT: Mozilla/5.0 (Macintosh; Intel Mac OS X 10_10_5) AppleWebKit/537.36 (KHTML, like Gecko) Chrome/59.0.3071.115 Safari/537.36
# Design number was non-random = 0
#
# Columns below this comment are as follows:
# 1. Time results were received.
# 2. MD5 hash of participant's IP address.
# 3. Controller name.
# 4. Item number.
# 5. Element number.
# 6. Type.
# 7. Group.
# 8. Field name.
# 9. Field value.
1501077779,71fba0a5b0e56459f322b4a270f3a4c7,Form,0,0,idtest,NULL,workerID,
1501077779,71fba0a5b0e56459f322b4a270f3a4c7,Form,1,0,consent,NULL,consent,yes
1501077779,71fba0a5b0e56459f322b4a270f3a4c7,Form,3,0,background,NULL,othergender,N/A
1501077779,71fba0a5b0e56459f322b4a270f3a4c7,Form,3,0,background,NULL,age,39
1501077779,71fba0a5b0e56459f322b4a270f3a4c7,Form,3,0,background,NULL,natlang,English
1501077779,71fba0a5b0e56459f322b4a270f3a4c7,Form,3,0,background,NULL,state,FL
1501077779,71fba0a5b0e56459f322b4a270f3a4c7,Form,3,0,background,NULL,parentlang,English
1501077779,71fba0a5b0e56459f322b4a270f3a4c7,Form,3,0,background,NULL,domlang,English
1501077779,71fba0a5b0e56459f322b4a270f3a4c7,Form,3,0,background,NULL,otherlang,NA
1501077779,71fba0a5b0e56459f322b4a270f3a4c7,Form,3,0,background,NULL,device,Macbook Pro%2C OS X Yosemite
1501077779,71fba0a5b0e56459f322b4a270f3a4c7,Form,3,0,background,NULL,gender,male
1501077779,71fba0a5b0e56459f322b4a270f3a4c7,Form,5,0,intro,NULL,advancekey,space
1501077779,71fba0a5b0e56459f322b4a270f3a4c7,Form,5,0,intro,NULL,read,silent
1501077779,71fba0a5b0e56459f322b4a270f3a4c7,Form,5,0,intro,NULL,screen,no
1501077779,71fba0a5b0e56459f322b4a270f3a4c7,Form,6,0,intro,NULL,unacceptableresponse,1
1501077779,71fba0a5b0e56459f322b4a270f3a4c7,Form,6,0,intro,NULL,scale,all
1501077779,71fba0a5b0e56459f322b4a270f3a4c7,Form,6,0,intro,NULL,hands,yes
1501077779,71fba0a5b0e56459f322b4a270f3a4c7,Form,6,0,intro,NULL,window,maximized
# Columns below this comment are as follows:
# 1. Time results were received.
# 2. MD5 hash of participant's IP address.
# 3. Controller name.
# 4. Item number.
# 5. Element number.
# 6. Type.
# 7. Group.
# 8. Word number.
# 9. Word.
# 10. Reading time.
# 11. Newline?
# 12. Sentence (or sentence MD5).
1501077779,71fba0a5b0e56459f322b4a270f3a4c7,DashedSentence,11,0,Practice,NULL,1,This is,430,False,This is just a practice sentence to get you used to the method of presentation.
1501077779,71fba0a5b0e56459f322b4a270f3a4c7,DashedSentence,11,0,Practice,NULL,2,just a practice sentence,320,False,This is just a practice sentence to get you used to the method of presentation.
1501077779,71fba0a5b0e56459f322b4a270f3a4c7,DashedSentence,11,0,Practice,NULL,3,to get you used,345,False,This is just a practice sentence to get you used to the method of presentation.
1501077779,71fba0a5b0e56459f322b4a270f3a4c7,DashedSentence,11,0,Practice,NULL,4,to the method,224,False,This is just a practice sentence to get you used to the method of presentation.
1501077779,71fba0a5b0e56459f322b4a270f3a4c7,DashedSentence,11,0,Practice,NULL,5,of presentation.,344,False,This is just a practice sentence to get you used to the method of presentation.
1501077779,71fba0a5b0e56459f322b4a270f3a4c7,DashedSentence,12,0,Practice,NULL,1,This is,305,False,This is another practice sentence which is longer and a little more complicated than the one you just read.
1501077779,71fba0a5b0e56459f322b4a270f3a4c7,DashedSentence,12,0,Practice,NULL,2,another practice sentence,216,False,This is another practice sentence which is longer and a little more complicated than the one you just read.
1501077779,71fba0a5b0e56459f322b4a270f3a4c7,DashedSentence,12,0,Practice,NULL,3,which is longer,312,False,This is another practice sentence which is longer and a little more complicated than the one you just read.
1501077779,71fba0a5b0e56459f322b4a270f3a4c7,DashedSentence,12,0,Practice,NULL,4,and a little more complicated,631,False,This is another practice sentence which is longer and a little more complicated than the one you just read.
1501077779,71fba0a5b0e56459f322b4a270f3a4c7,DashedSentence,12,0,Practice,NULL,5,than the one,639,False,This is another practice sentence which is longer and a little more complicated than the one you just read.
1501077779,71fba0a5b0e56459f322b4a270f3a4c7,DashedSentence,12,0,Practice,NULL,6,you just read.,234,False,This is another practice sentence which is longer and a little more complicated than the one you just read.
1501077779,71fba0a5b0e56459f322b4a270f3a4c7,DashedSentence,14,0,Practice,NULL,1,Elias,344,False,Elias told Martha that the attractive lifeguard on the pier who is dating Tracy's sister saved a little boy from being swept out to sea by a rip-tide yesterday.
1501077779,71fba0a5b0e56459f322b4a270f3a4c7,DashedSentence,14,0,Practice,NULL,2,told Martha,354,False,Elias told Martha that the attractive lifeguard on the pier who is dating Tracy's sister saved a little boy from being swept out to sea by a rip-tide yesterday.
1501077779,71fba0a5b0e56459f322b4a270f3a4c7,DashedSentence,14,0,Practice,NULL,3,that the attractive lifeguard,712,False,Elias told Martha that the attractive lifeguard on the pier who is dating Tracy's sister saved a little boy from being swept out to sea by a rip-tide yesterday.
1501077779,71fba0a5b0e56459f322b4a270f3a4c7,DashedSentence,14,0,Practice,NULL,4,on the pier,272,False,Elias told Martha that the attractive lifeguard on the pier who is dating Tracy's sister saved a little boy from being swept out to sea by a rip-tide yesterday.
1501077779,71fba0a5b0e56459f322b4a270f3a4c7,DashedSentence,14,0,Practice,NULL,5,who is dating,279,False,Elias told Martha that the attractive lifeguard on the pier who is dating Tracy's sister saved a little boy from being swept out to sea by a rip-tide yesterday.
1501077779,71fba0a5b0e56459f322b4a270f3a4c7,DashedSentence,14,0,Practice,NULL,6,Tracy's sister,343,False,Elias told Martha that the attractive lifeguard on the pier who is dating Tracy's sister saved a little boy from being swept out to sea by a rip-tide yesterday.
1501077779,71fba0a5b0e56459f322b4a270f3a4c7,DashedSentence,14,0,Practice,NULL,7,saved,418,False,Elias told Martha that the attractive lifeguard on the pier who is dating Tracy's sister saved a little boy from being swept out to sea by a rip-tide yesterday.
1501077779,71fba0a5b0e56459f322b4a270f3a4c7,DashedSentence,14,0,Practice,NULL,8,a little boy,326,False,Elias told Martha that the attractive lifeguard on the pier who is dating Tracy's sister saved a little boy from being swept out to sea by a rip-tide yesterday.
1501077779,71fba0a5b0e56459f322b4a270f3a4c7,DashedSentence,14,0,Practice,NULL,9,from being,362,False,Elias told Martha that the attractive lifeguard on the pier who is dating Tracy's sister saved a little boy from being swept out to sea by a rip-tide yesterday.
1501077779,71fba0a5b0e56459f322b4a270f3a4c7,DashedSentence,14,0,Practice,NULL,10,swept out to sea,310,False,Elias told Martha that the attractive lifeguard on the pier who is dating Tracy's sister saved a little boy from being swept out to sea by a rip-tide yesterday.
1501077779,71fba0a5b0e56459f322b4a270f3a4c7,DashedSentence,14,0,Practice,NULL,11,by a rip-tide yesterday.,536,False,Elias told Martha that the attractive lifeguard on the pier who is dating Tracy's sister saved a little boy from being swept out to sea by a rip-tide yesterday.
# The lines below this comment are in groups of 2.
# The formats of the lines in each of these groups are as follows:
#
# Line 1:
#     Col. 1: Time results were received.
#     Col. 2: MD5 hash of participant's IP address.
#     Col. 3: Controller name.
#     Col. 4: Item number.
#     Col. 5: Element number.
#     Col. 6: Type.
#     Col. 7: Group.
#     Col. 8: Question (NULL if none).
#     Col. 9: Answer.
#     Col. 10: Whether or not answer was correct (NULL if N/A).
#     Col. 11: Time taken to answer.
# Line 2:
#     Col. 1: Time results were received.
#     Col. 2: MD5 hash of participant's IP address.
#     Col. 3: Controller name.
#     Col. 4: Item number.
#     Col. 5: Element number.
#     Col. 6: Type.
#     Col. 7: Group.
#     Col. 8: Word number.
#     Col. 9: Word.
#     Col. 10: Reading time.
#     Col. 11: Newline?
#     Col. 12: Sentence (or sentence MD5).
1501077779,71fba0a5b0e56459f322b4a270f3a4c7,Question,15,0,Practice,NULL,How acceptable did you find the sentence?,7,NULL,2214
1501077779,71fba0a5b0e56459f322b4a270f3a4c7,DashedSentence,17,0,Practice,NULL,1,The pop star,298,False,The pop star sang myself hoarse at the concert last night.
# Columns below this comment are as follows:
# 1. Time results were received.
# 2. MD5 hash of participant's IP address.
# 3. Controller name.
# 4. Item number.
# 5. Element number.
# 6. Type.
# 7. Group.
# 8. Word number.
# 9. Word.
# 10. Reading time.
# 11. Newline?
# 12. Sentence (or sentence MD5).
1501077779,71fba0a5b0e56459f322b4a270f3a4c7,DashedSentence,17,0,Practice,NULL,2,sang,344,False,The pop star sang myself hoarse at the concert last night.
1501077779,71fba0a5b0e56459f322b4a270f3a4c7,DashedSentence,17,0,Practice,NULL,3,myself hoarse,608,False,The pop star sang myself hoarse at the concert last night.
1501077779,71fba0a5b0e56459f322b4a270f3a4c7,DashedSentence,17,0,Practice,NULL,4,at the concert,430,False,The pop star sang myself hoarse at the concert last night.
1501077779,71fba0a5b0e56459f322b4a270f3a4c7,DashedSentence,17,0,Practice,NULL,5,last night.,264,False,The pop star sang myself hoarse at the concert last night.
# The lines below this comment are in groups of 2.
# The formats of the lines in each of these groups are as follows:
#
# Line 1:
#     Col. 1: Time results were received.
#     Col. 2: MD5 hash of participant's IP address.
#     Col. 3: Controller name.
#     Col. 4: Item number.
#     Col. 5: Element number.
#     Col. 6: Type.
#     Col. 7: Group.
#     Col. 8: Question (NULL if none).
#     Col. 9: Answer.
#     Col. 10: Whether or not answer was correct (NULL if N/A).
#     Col. 11: Time taken to answer.
# Line 2:
#     Col. 1: Time results were received.
#     Col. 2: MD5 hash of participant's IP address.
#     Col. 3: Controller name.
#     Col. 4: Item number.
#     Col. 5: Element number.
#     Col. 6: Type.
#     Col. 7: Group.
#     Col. 8: Word number.
#     Col. 9: Word.
#     Col. 10: Reading time.
#     Col. 11: Newline?
#     Col. 12: Sentence (or sentence MD5).
1501077779,71fba0a5b0e56459f322b4a270f3a4c7,Question,18,0,Practice,NULL,How acceptable did you find the sentence?,2,NULL,1502
1501077779,71fba0a5b0e56459f322b4a270f3a4c7,DashedSentence,20,0,Practice,NULL,1,The kids,368,False,The kids were eating yesterday the string cheese
# Columns below this comment are as follows:
# 1. Time results were received.
# 2. MD5 hash of participant's IP address.
# 3. Controller name.
# 4. Item number.
# 5. Element number.
# 6. Type.
# 7. Group.
# 8. Word number.
# 9. Word.
# 10. Reading time.
# 11. Newline?
# 12. Sentence (or sentence MD5).
1501077779,71fba0a5b0e56459f322b4a270f3a4c7,DashedSentence,20,0,Practice,NULL,2,were eating,278,False,The kids were eating yesterday the string cheese
1501077779,71fba0a5b0e56459f322b4a270f3a4c7,DashedSentence,20,0,Practice,NULL,3,yesterday,296,False,The kids were eating yesterday the string cheese
1501077779,71fba0a5b0e56459f322b4a270f3a4c7,DashedSentence,20,0,Practice,NULL,4,the string cheese,434,False,The kids were eating yesterday the string cheese
# The lines below this comment are in groups of 2.
# The formats of the lines in each of these groups are as follows:
#
# Line 1:
#     Col. 1: Time results were received.
#     Col. 2: MD5 hash of participant's IP address.
#     Col. 3: Controller name.
#     Col. 4: Item number.
#     Col. 5: Element number.
#     Col. 6: Type.
#     Col. 7: Group.
#     Col. 8: Question (NULL if none).
#     Col. 9: Answer.
#     Col. 10: Whether or not answer was correct (NULL if N/A).
#     Col. 11: Time taken to answer.
# Line 2:
#     Col. 1: Time results were received.
#     Col. 2: MD5 hash of participant's IP address.
#     Col. 3: Controller name.
#     Col. 4: Item number.
#     Col. 5: Element number.
#     Col. 6: Type.
#     Col. 7: Group.
#     Col. 8: Word number.
#     Col. 9: Word.
#     Col. 10: Reading time.
#     Col. 11: Newline?
#     Col. 12: Sentence (or sentence MD5).
1501077779,71fba0a5b0e56459f322b4a270f3a4c7,Question,21,0,Practice,NULL,How acceptable did you find the sentence?,4,NULL,2083
1501077779,71fba0a5b0e56459f322b4a270f3a4c7,DashedSentence,23,0,Practice,NULL,1,The plumber,88,False,The plumber working in the bathroom cursed himself for forgetting his wrench.
# Columns below this comment are as follows:
# 1. Time results were received.
# 2. MD5 hash of participant's IP address.
# 3. Controller name.
# 4. Item number.
# 5. Element number.
# 6. Type.
# 7. Group.
# 8. Word number.
# 9. Word.
# 10. Reading time.
# 11. Newline?
# 12. Sentence (or sentence MD5).
1501077779,71fba0a5b0e56459f322b4a270f3a4c7,DashedSentence,23,0,Practice,NULL,2,working in the bathroom,762,False,The plumber working in the bathroom cursed himself for forgetting his wrench.
1501077779,71fba0a5b0e56459f322b4a270f3a4c7,DashedSentence,23,0,Practice,NULL,3,cursed himself,319,False,The plumber working in the bathroom cursed himself for forgetting his wrench.
1501077779,71fba0a5b0e56459f322b4a270f3a4c7,DashedSentence,23,0,Practice,NULL,4,for forgetting,535,False,The plumber working in the bathroom cursed himself for forgetting his wrench.
1501077779,71fba0a5b0e56459f322b4a270f3a4c7,DashedSentence,23,0,Practice,NULL,5,his wrench.,264,False,The plumber working in the bathroom cursed himself for forgetting his wrench.
# The lines below this comment are in groups of 2.
# The formats of the lines in each of these groups are as follows:
#
# Line 1:
#     Col. 1: Time results were received.
#     Col. 2: MD5 hash of participant's IP address.
#     Col. 3: Controller name.
#     Col. 4: Item number.
#     Col. 5: Element number.
#     Col. 6: Type.
#     Col. 7: Group.
#     Col. 8: Question (NULL if none).
#     Col. 9: Answer.
#     Col. 10: Whether or not answer was correct (NULL if N/A).
#     Col. 11: Time taken to answer.
# Line 2:
#     Col. 1: Time results were received.
#     Col. 2: MD5 hash of participant's IP address.
#     Col. 3: Controller name.
#     Col. 4: Item number.
#     Col. 5: Element number.
#     Col. 6: Type.
#     Col. 7: Group.
#     Col. 8: Word number.
#     Col. 9: Word.
#     Col. 10: Reading time.
#     Col. 11: Newline?
#     Col. 12: Sentence (or sentence MD5).
1501077779,71fba0a5b0e56459f322b4a270f3a4c7,Question,24,0,Practice,NULL,How acceptable did you find the sentence?,7,NULL,1728
1501077779,71fba0a5b0e56459f322b4a270f3a4c7,DashedSentence,443,0,filler,71,1,The villagers,301,False,The villagers from the rainforest that fought the oil company%2C as is their right%2C definitely didn't want to move anywhere else.
# Columns below this comment are as follows:
# 1. Time results were received.
# 2. MD5 hash of participant's IP address.
# 3. Controller name.
# 4. Item number.
# 5. Element number.
# 6. Type.
# 7. Group.
# 8. Word number.
# 9. Word.
# 10. Reading time.
# 11. Newline?
# 12. Sentence (or sentence MD5).
1501077779,71fba0a5b0e56459f322b4a270f3a4c7,DashedSentence,443,0,filler,71,2,from the rainforest,288,False,The villagers from the rainforest that fought the oil company%2C as is their right%2C definitely didn't want to move anywhere else.
1501077779,71fba0a5b0e56459f322b4a270f3a4c7,DashedSentence,443,0,filler,71,3,that fought the oil company%2C,976,False,The villagers from the rainforest that fought the oil company%2C as is their right%2C definitely didn't want to move anywhere else.
1501077779,71fba0a5b0e56459f322b4a270f3a4c7,DashedSentence,443,0,filler,71,4,as is their right%2C,2712,False,The villagers from the rainforest that fought the oil company%2C as is their right%2C definitely didn't want to move anywhere else.
1501077779,71fba0a5b0e56459f322b4a270f3a4c7,DashedSentence,443,0,filler,71,5,definitely didn't want,455,False,The villagers from the rainforest that fought the oil company%2C as is their right%2C definitely didn't want to move anywhere else.
1501077779,71fba0a5b0e56459f322b4a270f3a4c7,DashedSentence,443,0,filler,71,6,to move anywhere else.,369,False,The villagers from the rainforest that fought the oil company%2C as is their right%2C definitely didn't want to move anywhere else.
# The lines below this comment are in groups of 2.
# The formats of the lines in each of these groups are as follows:
#
# Line 1:
#     Col. 1: Time results were received.
#     Col. 2: MD5 hash of participant's IP address.
#     Col. 3: Controller name.
#     Col. 4: Item number.
#     Col. 5: Element number.
#     Col. 6: Type.
#     Col. 7: Group.
#     Col. 8: Question (NULL if none).
#     Col. 9: Answer.
#     Col. 10: Whether or not answer was correct (NULL if N/A).
#     Col. 11: Time taken to answer.
# Line 2:
#     Col. 1: Time results were received.
#     Col. 2: MD5 hash of participant's IP address.
#     Col. 3: Controller name.
#     Col. 4: Item number.
#     Col. 5: Element number.
#     Col. 6: Type.
#     Col. 7: Group.
#     Col. 8: Word number.
#     Col. 9: Word.
#     Col. 10: Reading time.
#     Col. 11: Newline?
#     Col. 12: Sentence (or sentence MD5).
1501077779,71fba0a5b0e56459f322b4a270f3a4c7,Question,443,1,filler,71,How acceptable did you find the sentence?,6,NULL,1909
1501077779,71fba0a5b0e56459f322b4a270f3a4c7,DashedSentence,467,0,filler,95,1,The donors,343,False,The donors that is giving to the new foundation%2C all in all%2C hoped their contributions would make a difference.
# Columns below this comment are as follows:
# 1. Time results were received.
# 2. MD5 hash of participant's IP address.
# 3. Controller name.
# 4. Item number.
# 5. Element number.
# 6. Type.
# 7. Group.
# 8. Word number.
# 9. Word.
# 10. Reading time.
# 11. Newline?
# 12. Sentence (or sentence MD5).
1501077779,71fba0a5b0e56459f322b4a270f3a4c7,DashedSentence,467,0,filler,95,2,that is giving,488,False,The donors that is giving to the new foundation%2C all in all%2C hoped their contributions would make a difference.
1501077779,71fba0a5b0e56459f322b4a270f3a4c7,DashedSentence,467,0,filler,95,3,to the new foundation%2C,610,False,The donors that is giving to the new foundation%2C all in all%2C hoped their contributions would make a difference.
1501077779,71fba0a5b0e56459f322b4a270f3a4c7,DashedSentence,467,0,filler,95,4,all in all%2C,464,False,The donors that is giving to the new foundation%2C all in all%2C hoped their contributions would make a difference.
1501077779,71fba0a5b0e56459f322b4a270f3a4c7,DashedSentence,467,0,filler,95,5,hoped their contributions,328,False,The donors that is giving to the new foundation%2C all in all%2C hoped their contributions would make a difference.
1501077779,71fba0a5b0e56459f322b4a270f3a4c7,DashedSentence,467,0,filler,95,6,would make a difference.,736,False,The donors that is giving to the new foundation%2C all in all%2C hoped their contributions would make a difference.
# The lines below this comment are in groups of 2.
# The formats of the lines in each of these groups are as follows:
#
# Line 1:
#     Col. 1: Time results were received.
#     Col. 2: MD5 hash of participant's IP address.
#     Col. 3: Controller name.
#     Col. 4: Item number.
#     Col. 5: Element number.
#     Col. 6: Type.
#     Col. 7: Group.
#     Col. 8: Question (NULL if none).
#     Col. 9: Answer.
#     Col. 10: Whether or not answer was correct (NULL if N/A).
#     Col. 11: Time taken to answer.
# Line 2:
#     Col. 1: Time results were received.
#     Col. 2: MD5 hash of participant's IP address.
#     Col. 3: Controller name.
#     Col. 4: Item number.
#     Col. 5: Element number.
#     Col. 6: Type.
#     Col. 7: Group.
#     Col. 8: Word number.
#     Col. 9: Word.
#     Col. 10: Reading time.
#     Col. 11: Newline?
#     Col. 12: Sentence (or sentence MD5).
1501077779,71fba0a5b0e56459f322b4a270f3a4c7,Question,467,1,filler,95,How acceptable did you find the sentence?,3,NULL,1336
1501077779,71fba0a5b0e56459f322b4a270f3a4c7,DashedSentence,110,0,cond-B,10,1,The prisoner,327,False,The prisoner that snuck behind the guards%2C by the way%2C supposedly was captured across the border in a small town.
# Columns below this comment are as follows:
# 1. Time results were received.
# 2. MD5 hash of participant's IP address.
# 3. Controller name.
# 4. Item number.
# 5. Element number.
# 6. Type.
# 7. Group.
# 8. Word number.
# 9. Word.
# 10. Reading time.
# 11. Newline?
# 12. Sentence (or sentence MD5).
1501077779,71fba0a5b0e56459f322b4a270f3a4c7,DashedSentence,110,0,cond-B,10,2,that snuck behind the guards%2C,978,False,The prisoner that snuck behind the guards%2C by the way%2C supposedly was captured across the border in a small town.
1501077779,71fba0a5b0e56459f322b4a270f3a4c7,DashedSentence,110,0,cond-B,10,3,by the way%2C,304,False,The prisoner that snuck behind the guards%2C by the way%2C supposedly was captured across the border in a small town.
1501077779,71fba0a5b0e56459f322b4a270f3a4c7,DashedSentence,110,0,cond-B,10,4,supposedly was captured,2904,False,The prisoner that snuck behind the guards%2C by the way%2C supposedly was captured across the border in a small town.
1501077779,71fba0a5b0e56459f322b4a270f3a4c7,DashedSentence,110,0,cond-B,10,5,across the border,1008,False,The prisoner that snuck behind the guards%2C by the way%2C supposedly was captured across the border in a small town.
1501077779,71fba0a5b0e56459f322b4a270f3a4c7,DashedSentence,110,0,cond-B,10,6,in a small town.,520,False,The prisoner that snuck behind the guards%2C by the way%2C supposedly was captured across the border in a small town.
# The lines below this comment are in groups of 2.
# The formats of the lines in each of these groups are as follows:
#
# Line 1:
#     Col. 1: Time results were received.
#     Col. 2: MD5 hash of participant's IP address.
#     Col. 3: Controller name.
#     Col. 4: Item number.
#     Col. 5: Element number.
#     Col. 6: Type.
#     Col. 7: Group.
#     Col. 8: Question (NULL if none).
#     Col. 9: Answer.
#     Col. 10: Whether or not answer was correct (NULL if N/A).
#     Col. 11: Time taken to answer.
# Line 2:
#     Col. 1: Time results were received.
#     Col. 2: MD5 hash of participant's IP address.
#     Col. 3: Controller name.
#     Col. 4: Item number.
#     Col. 5: Element number.
#     Col. 6: Type.
#     Col. 7: Group.
#     Col. 8: Word number.
#     Col. 9: Word.
#     Col. 10: Reading time.
#     Col. 11: Newline?
#     Col. 12: Sentence (or sentence MD5).
1501077779,71fba0a5b0e56459f322b4a270f3a4c7,Question,110,1,cond-B,10,How acceptable did you find the sentence?,5,NULL,4161
1501077779,71fba0a5b0e56459f322b4a270f3a4c7,DashedSentence,455,0,filler,83,1,The housekeeper,486,False,The housekeeper at the mansion that had recently been renovated now had a whole bedroom to herself.
# Columns below this comment are as follows:
# 1. Time results were received.
# 2. MD5 hash of participant's IP address.
# 3. Controller name.
# 4. Item number.
# 5. Element number.
# 6. Type.
# 7. Group.
# 8. Word number.
# 9. Word.
# 10. Reading time.
# 11. Newline?
# 12. Sentence (or sentence MD5).
1501077779,71fba0a5b0e56459f322b4a270f3a4c7,DashedSentence,455,0,filler,83,2,at the mansion,730,False,The housekeeper at the mansion that had recently been renovated now had a whole bedroom to herself.
1501077779,71fba0a5b0e56459f322b4a270f3a4c7,DashedSentence,455,0,filler,83,3,that had recently been renovated,982,False,The housekeeper at the mansion that had recently been renovated now had a whole bedroom to herself.
1501077779,71fba0a5b0e56459f322b4a270f3a4c7,DashedSentence,455,0,filler,83,4,now had a whole bedroom,1213,False,The housekeeper at the mansion that had recently been renovated now had a whole bedroom to herself.
1501077779,71fba0a5b0e56459f322b4a270f3a4c7,DashedSentence,455,0,filler,83,5,to herself.,451,False,The housekeeper at the mansion that had recently been renovated now had a whole bedroom to herself.
# The lines below this comment are in groups of 2.
# The formats of the lines in each of these groups are as follows:
#
# Line 1:
#     Col. 1: Time results were received.
#     Col. 2: MD5 hash of participant's IP address.
#     Col. 3: Controller name.
#     Col. 4: Item number.
#     Col. 5: Element number.
#     Col. 6: Type.
#     Col. 7: Group.
#     Col. 8: Question (NULL if none).
#     Col. 9: Answer.
#     Col. 10: Whether or not answer was correct (NULL if N/A).
#     Col. 11: Time taken to answer.
# Line 2:
#     Col. 1: Time results were received.
#     Col. 2: MD5 hash of participant's IP address.
#     Col. 3: Controller name.
#     Col. 4: Item number.
#     Col. 5: Element number.
#     Col. 6: Type.
#     Col. 7: Group.
#     Col. 8: Word number.
#     Col. 9: Word.
#     Col. 10: Reading time.
#     Col. 11: Newline?
#     Col. 12: Sentence (or sentence MD5).
1501077779,71fba0a5b0e56459f322b4a270f3a4c7,Question,455,1,filler,83,How acceptable did you find the sentence?,7,NULL,1070
1501077779,71fba0a5b0e56459f322b4a270f3a4c7,DashedSentence,347,0,cond-G,39,1,All joking aside%2C,456,False,All joking aside%2C the skateboarder that relaxed on the ramp finally have recovered from the injuries he suffered last year.
# Columns below this comment are as follows:
# 1. Time results were received.
# 2. MD5 hash of participant's IP address.
# 3. Controller name.
# 4. Item number.
# 5. Element number.
# 6. Type.
# 7. Group.
# 8. Word number.
# 9. Word.
# 10. Reading time.
# 11. Newline?
# 12. Sentence (or sentence MD5).
1501077779,71fba0a5b0e56459f322b4a270f3a4c7,DashedSentence,347,0,cond-G,39,2,the skateboarder,441,False,All joking aside%2C the skateboarder that relaxed on the ramp finally have recovered from the injuries he suffered last year.
1501077779,71fba0a5b0e56459f322b4a270f3a4c7,DashedSentence,347,0,cond-G,39,3,that relaxed on the ramp,440,False,All joking aside%2C the skateboarder that relaxed on the ramp finally have recovered from the injuries he suffered last year.
1501077779,71fba0a5b0e56459f322b4a270f3a4c7,DashedSentence,347,0,cond-G,39,4,finally have recovered,2271,False,All joking aside%2C the skateboarder that relaxed on the ramp finally have recovered from the injuries he suffered last year.
1501077779,71fba0a5b0e56459f322b4a270f3a4c7,DashedSentence,347,0,cond-G,39,5,from the injuries,544,False,All joking aside%2C the skateboarder that relaxed on the ramp finally have recovered from the injuries he suffered last year.
1501077779,71fba0a5b0e56459f322b4a270f3a4c7,DashedSentence,347,0,cond-G,39,6,he suffered last year.,305,False,All joking aside%2C the skateboarder that relaxed on the ramp finally have recovered from the injuries he suffered last year.
# The lines below this comment are in groups of 2.
# The formats of the lines in each of these groups are as follows:
#
# Line 1:
#     Col. 1: Time results were received.
#     Col. 2: MD5 hash of participant's IP address.
#     Col. 3: Controller name.
#     Col. 4: Item number.
#     Col. 5: Element number.
#     Col. 6: Type.
#     Col. 7: Group.
#     Col. 8: Question (NULL if none).
#     Col. 9: Answer.
#     Col. 10: Whether or not answer was correct (NULL if N/A).
#     Col. 11: Time taken to answer.
# Line 2:
#     Col. 1: Time results were received.
#     Col. 2: MD5 hash of participant's IP address.
#     Col. 3: Controller name.
#     Col. 4: Item number.
#     Col. 5: Element number.
#     Col. 6: Type.
#     Col. 7: Group.
#     Col. 8: Word number.
#     Col. 9: Word.
#     Col. 10: Reading time.
#     Col. 11: Newline?
#     Col. 12: Sentence (or sentence MD5).
1501077779,71fba0a5b0e56459f322b4a270f3a4c7,Question,347,1,cond-G,39,How acceptable did you find the sentence?,2,NULL,1751
1501077779,71fba0a5b0e56459f322b4a270f3a4c7,DashedSentence,482,0,filler,110,1,Most shockingly%2C,498,False,Most shockingly%2C the stewardess that tried to get himself free tickets to the Bahamas apparently got in trouble with the management.
# Columns below this comment are as follows:
# 1. Time results were received.
# 2. MD5 hash of participant's IP address.
# 3. Controller name.
# 4. Item number.
# 5. Element number.
# 6. Type.
# 7. Group.
# 8. Word number.
# 9. Word.
# 10. Reading time.
# 11. Newline?
# 12. Sentence (or sentence MD5).
1501077779,71fba0a5b0e56459f322b4a270f3a4c7,DashedSentence,482,0,filler,110,2,the stewardess,304,False,Most shockingly%2C the stewardess that tried to get himself free tickets to the Bahamas apparently got in trouble with the management.
1501077779,71fba0a5b0e56459f322b4a270f3a4c7,DashedSentence,482,0,filler,110,3,that tried to get himself,464,False,Most shockingly%2C the stewardess that tried to get himself free tickets to the Bahamas apparently got in trouble with the management.
1501077779,71fba0a5b0e56459f322b4a270f3a4c7,DashedSentence,482,0,filler,110,4,free tickets,936,False,Most shockingly%2C the stewardess that tried to get himself free tickets to the Bahamas apparently got in trouble with the management.
1501077779,71fba0a5b0e56459f322b4a270f3a4c7,DashedSentence,482,0,filler,110,5,to the Bahamas,432,False,Most shockingly%2C the stewardess that tried to get himself free tickets to the Bahamas apparently got in trouble with the management.
1501077779,71fba0a5b0e56459f322b4a270f3a4c7,DashedSentence,482,0,filler,110,6,apparently got in trouble,423,False,Most shockingly%2C the stewardess that tried to get himself free tickets to the Bahamas apparently got in trouble with the management.
1501077779,71fba0a5b0e56459f322b4a270f3a4c7,DashedSentence,482,0,filler,110,7,with the management.,311,False,Most shockingly%2C the stewardess that tried to get himself free tickets to the Bahamas apparently got in trouble with the management.
# The lines below this comment are in groups of 2.
# The formats of the lines in each of these groups are as follows:
#
# Line 1:
#     Col. 1: Time results were received.
#     Col. 2: MD5 hash of participant's IP address.
#     Col. 3: Controller name.
#     Col. 4: Item number.
#     Col. 5: Element number.
#     Col. 6: Type.
#     Col. 7: Group.
#     Col. 8: Question (NULL if none).
#     Col. 9: Answer.
#     Col. 10: Whether or not answer was correct (NULL if N/A).
#     Col. 11: Time taken to answer.
# Line 2:
#     Col. 1: Time results were received.
#     Col. 2: MD5 hash of participant's IP address.
#     Col. 3: Controller name.
#     Col. 4: Item number.
#     Col. 5: Element number.
#     Col. 6: Type.
#     Col. 7: Group.
#     Col. 8: Word number.
#     Col. 9: Word.
#     Col. 10: Reading time.
#     Col. 11: Newline?
#     Col. 12: Sentence (or sentence MD5).
1501077779,71fba0a5b0e56459f322b4a270f3a4c7,Question,482,1,filler,110,How acceptable did you find the sentence?,2,NULL,1283
1501077779,71fba0a5b0e56459f322b4a270f3a4c7,DashedSentence,446,0,filler,74,1,The cowboy,384,False,The cowboy that bought himself the rare cattle at the auction evidently is trying to diversify his herd.
# Columns below this comment are as follows:
# 1. Time results were received.
# 2. MD5 hash of participant's IP address.
# 3. Controller name.
# 4. Item number.
# 5. Element number.
# 6. Type.
# 7. Group.
# 8. Word number.
# 9. Word.
# 10. Reading time.
# 11. Newline?
# 12. Sentence (or sentence MD5).
1501077779,71fba0a5b0e56459f322b4a270f3a4c7,DashedSentence,446,0,filler,74,2,that bought himself,514,False,The cowboy that bought himself the rare cattle at the auction evidently is trying to diversify his herd.
1501077779,71fba0a5b0e56459f322b4a270f3a4c7,DashedSentence,446,0,filler,74,3,the rare cattle,344,False,The cowboy that bought himself the rare cattle at the auction evidently is trying to diversify his herd.
1501077779,71fba0a5b0e56459f322b4a270f3a4c7,DashedSentence,446,0,filler,74,4,at the auction,782,False,The cowboy that bought himself the rare cattle at the auction evidently is trying to diversify his herd.
1501077779,71fba0a5b0e56459f322b4a270f3a4c7,DashedSentence,446,0,filler,74,5,evidently is trying,821,False,The cowboy that bought himself the rare cattle at the auction evidently is trying to diversify his herd.
1501077779,71fba0a5b0e56459f322b4a270f3a4c7,DashedSentence,446,0,filler,74,6,to diversify his herd.,859,False,The cowboy that bought himself the rare cattle at the auction evidently is trying to diversify his herd.
# The lines below this comment are in groups of 2.
# The formats of the lines in each of these groups are as follows:
#
# Line 1:
#     Col. 1: Time results were received.
#     Col. 2: MD5 hash of participant's IP address.
#     Col. 3: Controller name.
#     Col. 4: Item number.
#     Col. 5: Element number.
#     Col. 6: Type.
#     Col. 7: Group.
#     Col. 8: Question (NULL if none).
#     Col. 9: Answer.
#     Col. 10: Whether or not answer was correct (NULL if N/A).
#     Col. 11: Time taken to answer.
# Line 2:
#     Col. 1: Time results were received.
#     Col. 2: MD5 hash of participant's IP address.
#     Col. 3: Controller name.
#     Col. 4: Item number.
#     Col. 5: Element number.
#     Col. 6: Type.
#     Col. 7: Group.
#     Col. 8: Word number.
#     Col. 9: Word.
#     Col. 10: Reading time.
#     Col. 11: Newline?
#     Col. 12: Sentence (or sentence MD5).
1501077779,71fba0a5b0e56459f322b4a270f3a4c7,Question,446,1,filler,74,How acceptable did you find the sentence?,7,NULL,1138
1501077779,71fba0a5b0e56459f322b4a270f3a4c7,DashedSentence,311,0,cond-C,35,1,The train,405,False,The train that stopped near the worker%2C to be fair%2C obviously are overdue for the inspection required by law.
# Columns below this comment are as follows:
# 1. Time results were received.
# 2. MD5 hash of participant's IP address.
# 3. Controller name.
# 4. Item number.
# 5. Element number.
# 6. Type.
# 7. Group.
# 8. Word number.
# 9. Word.
# 10. Reading time.
# 11. Newline?
# 12. Sentence (or sentence MD5).
1501077779,71fba0a5b0e56459f322b4a270f3a4c7,DashedSentence,311,0,cond-C,35,2,that stopped near the worker%2C,984,False,The train that stopped near the worker%2C to be fair%2C obviously are overdue for the inspection required by law.
1501077779,71fba0a5b0e56459f322b4a270f3a4c7,DashedSentence,311,0,cond-C,35,3,to be fair%2C,832,False,The train that stopped near the worker%2C to be fair%2C obviously are overdue for the inspection required by law.
1501077779,71fba0a5b0e56459f322b4a270f3a4c7,DashedSentence,311,0,cond-C,35,4,obviously are overdue,1176,False,The train that stopped near the worker%2C to be fair%2C obviously are overdue for the inspection required by law.
1501077779,71fba0a5b0e56459f322b4a270f3a4c7,DashedSentence,311,0,cond-C,35,5,for the inspection,472,False,The train that stopped near the worker%2C to be fair%2C obviously are overdue for the inspection required by law.
1501077779,71fba0a5b0e56459f322b4a270f3a4c7,DashedSentence,311,0,cond-C,35,6,required by law.,606,False,The train that stopped near the worker%2C to be fair%2C obviously are overdue for the inspection required by law.
# The lines below this comment are in groups of 2.
# The formats of the lines in each of these groups are as follows:
#
# Line 1:
#     Col. 1: Time results were received.
#     Col. 2: MD5 hash of participant's IP address.
#     Col. 3: Controller name.
#     Col. 4: Item number.
#     Col. 5: Element number.
#     Col. 6: Type.
#     Col. 7: Group.
#     Col. 8: Question (NULL if none).
#     Col. 9: Answer.
#     Col. 10: Whether or not answer was correct (NULL if N/A).
#     Col. 11: Time taken to answer.
# Line 2:
#     Col. 1: Time results were received.
#     Col. 2: MD5 hash of participant's IP address.
#     Col. 3: Controller name.
#     Col. 4: Item number.
#     Col. 5: Element number.
#     Col. 6: Type.
#     Col. 7: Group.
#     Col. 8: Word number.
#     Col. 9: Word.
#     Col. 10: Reading time.
#     Col. 11: Newline?
#     Col. 12: Sentence (or sentence MD5).
1501077779,71fba0a5b0e56459f322b4a270f3a4c7,Question,311,1,cond-C,35,How acceptable did you find the sentence?,2,NULL,1343
1501077779,71fba0a5b0e56459f322b4a270f3a4c7,DashedSentence,469,0,filler,97,1,In all honesty%2C,514,False,In all honesty%2C the basket that held the pillows for the couch apparently was any longer sturdy enough to use. 
# Columns below this comment are as follows:
# 1. Time results were received.
# 2. MD5 hash of participant's IP address.
# 3. Controller name.
# 4. Item number.
# 5. Element number.
# 6. Type.
# 7. Group.
# 8. Word number.
# 9. Word.
# 10. Reading time.
# 11. Newline?
# 12. Sentence (or sentence MD5).
1501077779,71fba0a5b0e56459f322b4a270f3a4c7,DashedSentence,469,0,filler,97,2,the basket,536,False,In all honesty%2C the basket that held the pillows for the couch apparently was any longer sturdy enough to use. 
1501077779,71fba0a5b0e56459f322b4a270f3a4c7,DashedSentence,469,0,filler,97,3,that held the pillows,624,False,In all honesty%2C the basket that held the pillows for the couch apparently was any longer sturdy enough to use. 
1501077779,71fba0a5b0e56459f322b4a270f3a4c7,DashedSentence,469,0,filler,97,4,for the couch,512,False,In all honesty%2C the basket that held the pillows for the couch apparently was any longer sturdy enough to use. 
1501077779,71fba0a5b0e56459f322b4a270f3a4c7,DashedSentence,469,0,filler,97,5,apparently was,560,False,In all honesty%2C the basket that held the pillows for the couch apparently was any longer sturdy enough to use. 
1501077779,71fba0a5b0e56459f322b4a270f3a4c7,DashedSentence,469,0,filler,97,6,any longer,1648,False,In all honesty%2C the basket that held the pillows for the couch apparently was any longer sturdy enough to use. 
1501077779,71fba0a5b0e56459f322b4a270f3a4c7,DashedSentence,469,0,filler,97,7,sturdy enough to use. ,798,False,In all honesty%2C the basket that held the pillows for the couch apparently was any longer sturdy enough to use. 
# The lines below this comment are in groups of 2.
# The formats of the lines in each of these groups are as follows:
#
# Line 1:
#     Col. 1: Time results were received.
#     Col. 2: MD5 hash of participant's IP address.
#     Col. 3: Controller name.
#     Col. 4: Item number.
#     Col. 5: Element number.
#     Col. 6: Type.
#     Col. 7: Group.
#     Col. 8: Question (NULL if none).
#     Col. 9: Answer.
#     Col. 10: Whether or not answer was correct (NULL if N/A).
#     Col. 11: Time taken to answer.
# Line 2:
#     Col. 1: Time results were received.
#     Col. 2: MD5 hash of participant's IP address.
#     Col. 3: Controller name.
#     Col. 4: Item number.
#     Col. 5: Element number.
#     Col. 6: Type.
#     Col. 7: Group.
#     Col. 8: Word number.
#     Col. 9: Word.
#     Col. 10: Reading time.
#     Col. 11: Newline?
#     Col. 12: Sentence (or sentence MD5).
1501077779,71fba0a5b0e56459f322b4a270f3a4c7,Question,469,1,filler,97,How acceptable did you find the sentence?,1,NULL,1045
1501077779,71fba0a5b0e56459f322b4a270f3a4c7,DashedSentence,478,0,filler,106,1,The teenagers,358,False,The teenagers at the beach party that had been organized by the school apparently wanted to stay anymore.
# Columns below this comment are as follows:
# 1. Time results were received.
# 2. MD5 hash of participant's IP address.
# 3. Controller name.
# 4. Item number.
# 5. Element number.
# 6. Type.
# 7. Group.
# 8. Word number.
# 9. Word.
# 10. Reading time.
# 11. Newline?
# 12. Sentence (or sentence MD5).
1501077779,71fba0a5b0e56459f322b4a270f3a4c7,DashedSentence,478,0,filler,106,2,at the beach party,336,False,The teenagers at the beach party that had been organized by the school apparently wanted to stay anymore.
1501077779,71fba0a5b0e56459f322b4a270f3a4c7,DashedSentence,478,0,filler,106,3,that had been organized,610,False,The teenagers at the beach party that had been organized by the school apparently wanted to stay anymore.
1501077779,71fba0a5b0e56459f322b4a270f3a4c7,DashedSentence,478,0,filler,106,4,by the school,312,False,The teenagers at the beach party that had been organized by the school apparently wanted to stay anymore.
1501077779,71fba0a5b0e56459f322b4a270f3a4c7,DashedSentence,478,0,filler,106,5,apparently wanted,470,False,The teenagers at the beach party that had been organized by the school apparently wanted to stay anymore.
1501077779,71fba0a5b0e56459f322b4a270f3a4c7,DashedSentence,478,0,filler,106,6,to stay anymore.,376,False,The teenagers at the beach party that had been organized by the school apparently wanted to stay anymore.
# The lines below this comment are in groups of 2.
# The formats of the lines in each of these groups are as follows:
#
# Line 1:
#     Col. 1: Time results were received.
#     Col. 2: MD5 hash of participant's IP address.
#     Col. 3: Controller name.
#     Col. 4: Item number.
#     Col. 5: Element number.
#     Col. 6: Type.
#     Col. 7: Group.
#     Col. 8: Question (NULL if none).
#     Col. 9: Answer.
#     Col. 10: Whether or not answer was correct (NULL if N/A).
#     Col. 11: Time taken to answer.
# Line 2:
#     Col. 1: Time results were received.
#     Col. 2: MD5 hash of participant's IP address.
#     Col. 3: Controller name.
#     Col. 4: Item number.
#     Col. 5: Element number.
#     Col. 6: Type.
#     Col. 7: Group.
#     Col. 8: Word number.
#     Col. 9: Word.
#     Col. 10: Reading time.
#     Col. 11: Newline?
#     Col. 12: Sentence (or sentence MD5).
1501077779,71fba0a5b0e56459f322b4a270f3a4c7,Question,478,1,filler,106,How acceptable did you find the sentence?,3,NULL,2051
1501077779,71fba0a5b0e56459f322b4a270f3a4c7,DashedSentence,100,0,cond-H,8,1,To be honest%2C,312,False,To be honest%2C the scratch that ran across the windows probably were caused by the storm last night.
# Columns below this comment are as follows:
# 1. Time results were received.
# 2. MD5 hash of participant's IP address.
# 3. Controller name.
# 4. Item number.
# 5. Element number.
# 6. Type.
# 7. Group.
# 8. Word number.
# 9. Word.
# 10. Reading time.
# 11. Newline?
# 12. Sentence (or sentence MD5).
1501077779,71fba0a5b0e56459f322b4a270f3a4c7,DashedSentence,100,0,cond-H,8,2,the scratch,496,False,To be honest%2C the scratch that ran across the windows probably were caused by the storm last night.
1501077779,71fba0a5b0e56459f322b4a270f3a4c7,DashedSentence,100,0,cond-H,8,3,that ran across the windows,758,False,To be honest%2C the scratch that ran across the windows probably were caused by the storm last night.
1501077779,71fba0a5b0e56459f322b4a270f3a4c7,DashedSentence,100,0,cond-H,8,4,probably were caused,290,False,To be honest%2C the scratch that ran across the windows probably were caused by the storm last night.
1501077779,71fba0a5b0e56459f322b4a270f3a4c7,DashedSentence,100,0,cond-H,8,5,by the storm,856,False,To be honest%2C the scratch that ran across the windows probably were caused by the storm last night.
1501077779,71fba0a5b0e56459f322b4a270f3a4c7,DashedSentence,100,0,cond-H,8,6,last night.,422,False,To be honest%2C the scratch that ran across the windows probably were caused by the storm last night.
# The lines below this comment are in groups of 2.
# The formats of the lines in each of these groups are as follows:
#
# Line 1:
#     Col. 1: Time results were received.
#     Col. 2: MD5 hash of participant's IP address.
#     Col. 3: Controller name.
#     Col. 4: Item number.
#     Col. 5: Element number.
#     Col. 6: Type.
#     Col. 7: Group.
#     Col. 8: Question (NULL if none).
#     Col. 9: Answer.
#     Col. 10: Whether or not answer was correct (NULL if N/A).
#     Col. 11: Time taken to answer.
# Line 2:
#     Col. 1: Time results were received.
#     Col. 2: MD5 hash of participant's IP address.
#     Col. 3: Controller name.
#     Col. 4: Item number.
#     Col. 5: Element number.
#     Col. 6: Type.
#     Col. 7: Group.
#     Col. 8: Word number.
#     Col. 9: Word.
#     Col. 10: Reading time.
#     Col. 11: Newline?
#     Col. 12: Sentence (or sentence MD5).
1501077779,71fba0a5b0e56459f322b4a270f3a4c7,Question,100,1,cond-H,8,How acceptable did you find the sentence?,4,NULL,3739
1501077779,71fba0a5b0e56459f322b4a270f3a4c7,DashedSentence,471,0,filler,99,1,The plants,552,False,The plants that were recently imported from Italy allegedly were ever inspected by the border patrol.
# Columns below this comment are as follows:
# 1. Time results were received.
# 2. MD5 hash of participant's IP address.
# 3. Controller name.
# 4. Item number.
# 5. Element number.
# 6. Type.
# 7. Group.
# 8. Word number.
# 9. Word.
# 10. Reading time.
# 11. Newline?
# 12. Sentence (or sentence MD5).
1501077779,71fba0a5b0e56459f322b4a270f3a4c7,DashedSentence,471,0,filler,99,2,that were recently imported,1126,False,The plants that were recently imported from Italy allegedly were ever inspected by the border patrol.
1501077779,71fba0a5b0e56459f322b4a270f3a4c7,DashedSentence,471,0,filler,99,3,from Italy,546,False,The plants that were recently imported from Italy allegedly were ever inspected by the border patrol.
1501077779,71fba0a5b0e56459f322b4a270f3a4c7,DashedSentence,471,0,filler,99,4,allegedly were ever inspected,1432,False,The plants that were recently imported from Italy allegedly were ever inspected by the border patrol.
1501077779,71fba0a5b0e56459f322b4a270f3a4c7,DashedSentence,471,0,filler,99,5,by the border patrol.,264,False,The plants that were recently imported from Italy allegedly were ever inspected by the border patrol.
# The lines below this comment are in groups of 2.
# The formats of the lines in each of these groups are as follows:
#
# Line 1:
#     Col. 1: Time results were received.
#     Col. 2: MD5 hash of participant's IP address.
#     Col. 3: Controller name.
#     Col. 4: Item number.
#     Col. 5: Element number.
#     Col. 6: Type.
#     Col. 7: Group.
#     Col. 8: Question (NULL if none).
#     Col. 9: Answer.
#     Col. 10: Whether or not answer was correct (NULL if N/A).
#     Col. 11: Time taken to answer.
# Line 2:
#     Col. 1: Time results were received.
#     Col. 2: MD5 hash of participant's IP address.
#     Col. 3: Controller name.
#     Col. 4: Item number.
#     Col. 5: Element number.
#     Col. 6: Type.
#     Col. 7: Group.
#     Col. 8: Word number.
#     Col. 9: Word.
#     Col. 10: Reading time.
#     Col. 11: Newline?
#     Col. 12: Sentence (or sentence MD5).
1501077779,71fba0a5b0e56459f322b4a270f3a4c7,Question,471,1,filler,99,How acceptable did you find the sentence?,2,NULL,1981
1501077779,71fba0a5b0e56459f322b4a270f3a4c7,DashedSentence,128,0,cond-D,12,1,The officer,320,False,The officer that trained with the soldiers%2C to be honest%2C always were angered by the recruits who forgot to make their beds.
# Columns below this comment are as follows:
# 1. Time results were received.
# 2. MD5 hash of participant's IP address.
# 3. Controller name.
# 4. Item number.
# 5. Element number.
# 6. Type.
# 7. Group.
# 8. Word number.
# 9. Word.
# 10. Reading time.
# 11. Newline?
# 12. Sentence (or sentence MD5).
1501077779,71fba0a5b0e56459f322b4a270f3a4c7,DashedSentence,128,0,cond-D,12,2,that trained with the soldiers%2C,1033,False,The officer that trained with the soldiers%2C to be honest%2C always were angered by the recruits who forgot to make their beds.
1501077779,71fba0a5b0e56459f322b4a270f3a4c7,DashedSentence,128,0,cond-D,12,3,to be honest%2C,471,False,The officer that trained with the soldiers%2C to be honest%2C always were angered by the recruits who forgot to make their beds.
1501077779,71fba0a5b0e56459f322b4a270f3a4c7,DashedSentence,128,0,cond-D,12,4,always were angered,1324,False,The officer that trained with the soldiers%2C to be honest%2C always were angered by the recruits who forgot to make their beds.
1501077779,71fba0a5b0e56459f322b4a270f3a4c7,DashedSentence,128,0,cond-D,12,5,by the recruits,941,False,The officer that trained with the soldiers%2C to be honest%2C always were angered by the recruits who forgot to make their beds.
1501077779,71fba0a5b0e56459f322b4a270f3a4c7,DashedSentence,128,0,cond-D,12,6,who forgot to make their beds.,751,False,The officer that trained with the soldiers%2C to be honest%2C always were angered by the recruits who forgot to make their beds.
# The lines below this comment are in groups of 2.
# The formats of the lines in each of these groups are as follows:
#
# Line 1:
#     Col. 1: Time results were received.
#     Col. 2: MD5 hash of participant's IP address.
#     Col. 3: Controller name.
#     Col. 4: Item number.
#     Col. 5: Element number.
#     Col. 6: Type.
#     Col. 7: Group.
#     Col. 8: Question (NULL if none).
#     Col. 9: Answer.
#     Col. 10: Whether or not answer was correct (NULL if N/A).
#     Col. 11: Time taken to answer.
# Line 2:
#     Col. 1: Time results were received.
#     Col. 2: MD5 hash of participant's IP address.
#     Col. 3: Controller name.
#     Col. 4: Item number.
#     Col. 5: Element number.
#     Col. 6: Type.
#     Col. 7: Group.
#     Col. 8: Word number.
#     Col. 9: Word.
#     Col. 10: Reading time.
#     Col. 11: Newline?
#     Col. 12: Sentence (or sentence MD5).
1501077779,71fba0a5b0e56459f322b4a270f3a4c7,Question,128,1,cond-D,12,How acceptable did you find the sentence?,3,NULL,3183
1501077779,71fba0a5b0e56459f322b4a270f3a4c7,DashedSentence,438,0,filler,66,1,The album%2C,538,False,The album%2C which I liked%2C supposedly wasn't sold in stores any longer after receiving a scathing review from the journalist.
# Columns below this comment are as follows:
# 1. Time results were received.
# 2. MD5 hash of participant's IP address.
# 3. Controller name.
# 4. Item number.
# 5. Element number.
# 6. Type.
# 7. Group.
# 8. Word number.
# 9. Word.
# 10. Reading time.
# 11. Newline?
# 12. Sentence (or sentence MD5).
1501077779,71fba0a5b0e56459f322b4a270f3a4c7,DashedSentence,438,0,filler,66,2,which I liked%2C,568,False,The album%2C which I liked%2C supposedly wasn't sold in stores any longer after receiving a scathing review from the journalist.
1501077779,71fba0a5b0e56459f322b4a270f3a4c7,DashedSentence,438,0,filler,66,3,supposedly wasn't sold,542,False,The album%2C which I liked%2C supposedly wasn't sold in stores any longer after receiving a scathing review from the journalist.
1501077779,71fba0a5b0e56459f322b4a270f3a4c7,DashedSentence,438,0,filler,66,4,in stores,474,False,The album%2C which I liked%2C supposedly wasn't sold in stores any longer after receiving a scathing review from the journalist.
1501077779,71fba0a5b0e56459f322b4a270f3a4c7,DashedSentence,438,0,filler,66,5,any longer,520,False,The album%2C which I liked%2C supposedly wasn't sold in stores any longer after receiving a scathing review from the journalist.
1501077779,71fba0a5b0e56459f322b4a270f3a4c7,DashedSentence,438,0,filler,66,6,after receiving,542,False,The album%2C which I liked%2C supposedly wasn't sold in stores any longer after receiving a scathing review from the journalist.
1501077779,71fba0a5b0e56459f322b4a270f3a4c7,DashedSentence,438,0,filler,66,7,a scathing review,602,False,The album%2C which I liked%2C supposedly wasn't sold in stores any longer after receiving a scathing review from the journalist.
1501077779,71fba0a5b0e56459f322b4a270f3a4c7,DashedSentence,438,0,filler,66,8,from the journalist.,515,False,The album%2C which I liked%2C supposedly wasn't sold in stores any longer after receiving a scathing review from the journalist.
# The lines below this comment are in groups of 2.
# The formats of the lines in each of these groups are as follows:
#
# Line 1:
#     Col. 1: Time results were received.
#     Col. 2: MD5 hash of participant's IP address.
#     Col. 3: Controller name.
#     Col. 4: Item number.
#     Col. 5: Element number.
#     Col. 6: Type.
#     Col. 7: Group.
#     Col. 8: Question (NULL if none).
#     Col. 9: Answer.
#     Col. 10: Whether or not answer was correct (NULL if N/A).
#     Col. 11: Time taken to answer.
# Line 2:
#     Col. 1: Time results were received.
#     Col. 2: MD5 hash of participant's IP address.
#     Col. 3: Controller name.
#     Col. 4: Item number.
#     Col. 5: Element number.
#     Col. 6: Type.
#     Col. 7: Group.
#     Col. 8: Word number.
#     Col. 9: Word.
#     Col. 10: Reading time.
#     Col. 11: Newline?
#     Col. 12: Sentence (or sentence MD5).
1501077779,71fba0a5b0e56459f322b4a270f3a4c7,Question,438,1,filler,66,How acceptable did you find the sentence?,7,NULL,1070
1501077779,71fba0a5b0e56459f322b4a270f3a4c7,DashedSentence,274,0,cond-F,30,1,With all due respect%2C,558,False,With all due respect%2C the senator that spoke to the reporters always has promised to decrease unemployment but never delivered.
# Columns below this comment are as follows:
# 1. Time results were received.
# 2. MD5 hash of participant's IP address.
# 3. Controller name.
# 4. Item number.
# 5. Element number.
# 6. Type.
# 7. Group.
# 8. Word number.
# 9. Word.
# 10. Reading time.
# 11. Newline?
# 12. Sentence (or sentence MD5).
1501077779,71fba0a5b0e56459f322b4a270f3a4c7,DashedSentence,274,0,cond-F,30,2,the senator,546,False,With all due respect%2C the senator that spoke to the reporters always has promised to decrease unemployment but never delivered.
1501077779,71fba0a5b0e56459f322b4a270f3a4c7,DashedSentence,274,0,cond-F,30,3,that spoke to the reporters,608,False,With all due respect%2C the senator that spoke to the reporters always has promised to decrease unemployment but never delivered.
1501077779,71fba0a5b0e56459f322b4a270f3a4c7,DashedSentence,274,0,cond-F,30,4,always has promised,1032,False,With all due respect%2C the senator that spoke to the reporters always has promised to decrease unemployment but never delivered.
1501077779,71fba0a5b0e56459f322b4a270f3a4c7,DashedSentence,274,0,cond-F,30,5,to decrease unemployment,656,False,With all due respect%2C the senator that spoke to the reporters always has promised to decrease unemployment but never delivered.
1501077779,71fba0a5b0e56459f322b4a270f3a4c7,DashedSentence,274,0,cond-F,30,6,but never delivered.,630,False,With all due respect%2C the senator that spoke to the reporters always has promised to decrease unemployment but never delivered.
# The lines below this comment are in groups of 2.
# The formats of the lines in each of these groups are as follows:
#
# Line 1:
#     Col. 1: Time results were received.
#     Col. 2: MD5 hash of participant's IP address.
#     Col. 3: Controller name.
#     Col. 4: Item number.
#     Col. 5: Element number.
#     Col. 6: Type.
#     Col. 7: Group.
#     Col. 8: Question (NULL if none).
#     Col. 9: Answer.
#     Col. 10: Whether or not answer was correct (NULL if N/A).
#     Col. 11: Time taken to answer.
# Line 2:
#     Col. 1: Time results were received.
#     Col. 2: MD5 hash of participant's IP address.
#     Col. 3: Controller name.
#     Col. 4: Item number.
#     Col. 5: Element number.
#     Col. 6: Type.
#     Col. 7: Group.
#     Col. 8: Word number.
#     Col. 9: Word.
#     Col. 10: Reading time.
#     Col. 11: Newline?
#     Col. 12: Sentence (or sentence MD5).
1501077779,71fba0a5b0e56459f322b4a270f3a4c7,Question,274,1,cond-F,30,How acceptable did you find the sentence?,6,NULL,1664
1501077779,71fba0a5b0e56459f322b4a270f3a4c7,DashedSentence,459,0,filler,87,1,The readers,582,False,The readers of the newspaper evidently dislikes the recent changes to the editorial staff.
# Columns below this comment are as follows:
# 1. Time results were received.
# 2. MD5 hash of participant's IP address.
# 3. Controller name.
# 4. Item number.
# 5. Element number.
# 6. Type.
# 7. Group.
# 8. Word number.
# 9. Word.
# 10. Reading time.
# 11. Newline?
# 12. Sentence (or sentence MD5).
1501077779,71fba0a5b0e56459f322b4a270f3a4c7,DashedSentence,459,0,filler,87,2,of the newspaper,501,False,The readers of the newspaper evidently dislikes the recent changes to the editorial staff.
1501077779,71fba0a5b0e56459f322b4a270f3a4c7,DashedSentence,459,0,filler,87,3,evidently dislikes,2484,False,The readers of the newspaper evidently dislikes the recent changes to the editorial staff.
1501077779,71fba0a5b0e56459f322b4a270f3a4c7,DashedSentence,459,0,filler,87,4,the recent changes,503,False,The readers of the newspaper evidently dislikes the recent changes to the editorial staff.
1501077779,71fba0a5b0e56459f322b4a270f3a4c7,DashedSentence,459,0,filler,87,5,to the editorial staff.,394,False,The readers of the newspaper evidently dislikes the recent changes to the editorial staff.
# The lines below this comment are in groups of 2.
# The formats of the lines in each of these groups are as follows:
#
# Line 1:
#     Col. 1: Time results were received.
#     Col. 2: MD5 hash of participant's IP address.
#     Col. 3: Controller name.
#     Col. 4: Item number.
#     Col. 5: Element number.
#     Col. 6: Type.
#     Col. 7: Group.
#     Col. 8: Question (NULL if none).
#     Col. 9: Answer.
#     Col. 10: Whether or not answer was correct (NULL if N/A).
#     Col. 11: Time taken to answer.
# Line 2:
#     Col. 1: Time results were received.
#     Col. 2: MD5 hash of participant's IP address.
#     Col. 3: Controller name.
#     Col. 4: Item number.
#     Col. 5: Element number.
#     Col. 6: Type.
#     Col. 7: Group.
#     Col. 8: Word number.
#     Col. 9: Word.
#     Col. 10: Reading time.
#     Col. 11: Newline?
#     Col. 12: Sentence (or sentence MD5).
1501077779,71fba0a5b0e56459f322b4a270f3a4c7,Question,459,1,filler,87,How acceptable did you find the sentence?,2,NULL,1538
1501077779,71fba0a5b0e56459f322b4a270f3a4c7,DashedSentence,427,0,filler,55,1,The gates,503,False,The gates that lead to the pasture%2C to my knowledge%2C probably originate from a chateau outside of Paris.
# Columns below this comment are as follows:
# 1. Time results were received.
# 2. MD5 hash of participant's IP address.
# 3. Controller name.
# 4. Item number.
# 5. Element number.
# 6. Type.
# 7. Group.
# 8. Word number.
# 9. Word.
# 10. Reading time.
# 11. Newline?
# 12. Sentence (or sentence MD5).
1501077779,71fba0a5b0e56459f322b4a270f3a4c7,DashedSentence,427,0,filler,55,2,that lead to the pasture%2C,618,False,The gates that lead to the pasture%2C to my knowledge%2C probably originate from a chateau outside of Paris.
1501077779,71fba0a5b0e56459f322b4a270f3a4c7,DashedSentence,427,0,filler,55,3,to my knowledge%2C,616,False,The gates that lead to the pasture%2C to my knowledge%2C probably originate from a chateau outside of Paris.
1501077779,71fba0a5b0e56459f322b4a270f3a4c7,DashedSentence,427,0,filler,55,4,probably originate,566,False,The gates that lead to the pasture%2C to my knowledge%2C probably originate from a chateau outside of Paris.
1501077779,71fba0a5b0e56459f322b4a270f3a4c7,DashedSentence,427,0,filler,55,5,from a chateau,618,False,The gates that lead to the pasture%2C to my knowledge%2C probably originate from a chateau outside of Paris.
1501077779,71fba0a5b0e56459f322b4a270f3a4c7,DashedSentence,427,0,filler,55,6,outside of Paris.,624,False,The gates that lead to the pasture%2C to my knowledge%2C probably originate from a chateau outside of Paris.
# The lines below this comment are in groups of 2.
# The formats of the lines in each of these groups are as follows:
#
# Line 1:
#     Col. 1: Time results were received.
#     Col. 2: MD5 hash of participant's IP address.
#     Col. 3: Controller name.
#     Col. 4: Item number.
#     Col. 5: Element number.
#     Col. 6: Type.
#     Col. 7: Group.
#     Col. 8: Question (NULL if none).
#     Col. 9: Answer.
#     Col. 10: Whether or not answer was correct (NULL if N/A).
#     Col. 11: Time taken to answer.
# Line 2:
#     Col. 1: Time results were received.
#     Col. 2: MD5 hash of participant's IP address.
#     Col. 3: Controller name.
#     Col. 4: Item number.
#     Col. 5: Element number.
#     Col. 6: Type.
#     Col. 7: Group.
#     Col. 8: Word number.
#     Col. 9: Word.
#     Col. 10: Reading time.
#     Col. 11: Newline?
#     Col. 12: Sentence (or sentence MD5).
1501077779,71fba0a5b0e56459f322b4a270f3a4c7,Question,427,1,filler,55,How acceptable did you find the sentence?,7,NULL,1214
1501077779,71fba0a5b0e56459f322b4a270f3a4c7,DashedSentence,238,0,cond-B,26,1,The tourist,472,False,The tourist that tanned near the pools%2C to be fair%2C always has gone to this resort during Christmas break.
# Columns below this comment are as follows:
# 1. Time results were received.
# 2. MD5 hash of participant's IP address.
# 3. Controller name.
# 4. Item number.
# 5. Element number.
# 6. Type.
# 7. Group.
# 8. Word number.
# 9. Word.
# 10. Reading time.
# 11. Newline?
# 12. Sentence (or sentence MD5).
1501077779,71fba0a5b0e56459f322b4a270f3a4c7,DashedSentence,238,0,cond-B,26,2,that tanned near the pools%2C,694,False,The tourist that tanned near the pools%2C to be fair%2C always has gone to this resort during Christmas break.
1501077779,71fba0a5b0e56459f322b4a270f3a4c7,DashedSentence,238,0,cond-B,26,3,to be fair%2C,562,False,The tourist that tanned near the pools%2C to be fair%2C always has gone to this resort during Christmas break.
1501077779,71fba0a5b0e56459f322b4a270f3a4c7,DashedSentence,238,0,cond-B,26,4,always has gone,568,False,The tourist that tanned near the pools%2C to be fair%2C always has gone to this resort during Christmas break.
1501077779,71fba0a5b0e56459f322b4a270f3a4c7,DashedSentence,238,0,cond-B,26,5,to this resort,830,False,The tourist that tanned near the pools%2C to be fair%2C always has gone to this resort during Christmas break.
1501077779,71fba0a5b0e56459f322b4a270f3a4c7,DashedSentence,238,0,cond-B,26,6,during Christmas break.,530,False,The tourist that tanned near the pools%2C to be fair%2C always has gone to this resort during Christmas break.
# The lines below this comment are in groups of 2.
# The formats of the lines in each of these groups are as follows:
#
# Line 1:
#     Col. 1: Time results were received.
#     Col. 2: MD5 hash of participant's IP address.
#     Col. 3: Controller name.
#     Col. 4: Item number.
#     Col. 5: Element number.
#     Col. 6: Type.
#     Col. 7: Group.
#     Col. 8: Question (NULL if none).
#     Col. 9: Answer.
#     Col. 10: Whether or not answer was correct (NULL if N/A).
#     Col. 11: Time taken to answer.
# Line 2:
#     Col. 1: Time results were received.
#     Col. 2: MD5 hash of participant's IP address.
#     Col. 3: Controller name.
#     Col. 4: Item number.
#     Col. 5: Element number.
#     Col. 6: Type.
#     Col. 7: Group.
#     Col. 8: Word number.
#     Col. 9: Word.
#     Col. 10: Reading time.
#     Col. 11: Newline?
#     Col. 12: Sentence (or sentence MD5).
1501077779,71fba0a5b0e56459f322b4a270f3a4c7,Question,238,1,cond-B,26,How acceptable did you find the sentence?,7,NULL,1465
1501077779,71fba0a5b0e56459f322b4a270f3a4c7,DashedSentence,464,0,filler,92,1,The skateboarders,624,False,The skateboarders that hung out by the loading dock supposedly has been chased off the property dozens of times.
# Columns below this comment are as follows:
# 1. Time results were received.
# 2. MD5 hash of participant's IP address.
# 3. Controller name.
# 4. Item number.
# 5. Element number.
# 6. Type.
# 7. Group.
# 8. Word number.
# 9. Word.
# 10. Reading time.
# 11. Newline?
# 12. Sentence (or sentence MD5).
1501077779,71fba0a5b0e56459f322b4a270f3a4c7,DashedSentence,464,0,filler,92,2,that hung out,923,False,The skateboarders that hung out by the loading dock supposedly has been chased off the property dozens of times.
1501077779,71fba0a5b0e56459f322b4a270f3a4c7,DashedSentence,464,0,filler,92,3,by the loading dock,533,False,The skateboarders that hung out by the loading dock supposedly has been chased off the property dozens of times.
1501077779,71fba0a5b0e56459f322b4a270f3a4c7,DashedSentence,464,0,filler,92,4,supposedly has been,719,False,The skateboarders that hung out by the loading dock supposedly has been chased off the property dozens of times.
1501077779,71fba0a5b0e56459f322b4a270f3a4c7,DashedSentence,464,0,filler,92,5,chased off the property,569,False,The skateboarders that hung out by the loading dock supposedly has been chased off the property dozens of times.
1501077779,71fba0a5b0e56459f322b4a270f3a4c7,DashedSentence,464,0,filler,92,6,dozens of times.,512,False,The skateboarders that hung out by the loading dock supposedly has been chased off the property dozens of times.
# The lines below this comment are in groups of 2.
# The formats of the lines in each of these groups are as follows:
#
# Line 1:
#     Col. 1: Time results were received.
#     Col. 2: MD5 hash of participant's IP address.
#     Col. 3: Controller name.
#     Col. 4: Item number.
#     Col. 5: Element number.
#     Col. 6: Type.
#     Col. 7: Group.
#     Col. 8: Question (NULL if none).
#     Col. 9: Answer.
#     Col. 10: Whether or not answer was correct (NULL if N/A).
#     Col. 11: Time taken to answer.
# Line 2:
#     Col. 1: Time results were received.
#     Col. 2: MD5 hash of participant's IP address.
#     Col. 3: Controller name.
#     Col. 4: Item number.
#     Col. 5: Element number.
#     Col. 6: Type.
#     Col. 7: Group.
#     Col. 8: Word number.
#     Col. 9: Word.
#     Col. 10: Reading time.
#     Col. 11: Newline?
#     Col. 12: Sentence (or sentence MD5).
1501077779,71fba0a5b0e56459f322b4a270f3a4c7,Question,464,1,filler,92,How acceptable did you find the sentence?,2,NULL,1850
1501077779,71fba0a5b0e56459f322b4a270f3a4c7,DashedSentence,64,0,cond-D,4,1,The orphan,430,False,The orphan that slept near the windows%2C by the way%2C finally were placed with a family in a nearby town.
# Columns below this comment are as follows:
# 1. Time results were received.
# 2. MD5 hash of participant's IP address.
# 3. Controller name.
# 4. Item number.
# 5. Element number.
# 6. Type.
# 7. Group.
# 8. Word number.
# 9. Word.
# 10. Reading time.
# 11. Newline?
# 12. Sentence (or sentence MD5).
1501077779,71fba0a5b0e56459f322b4a270f3a4c7,DashedSentence,64,0,cond-D,4,2,that slept near the windows%2C,1190,False,The orphan that slept near the windows%2C by the way%2C finally were placed with a family in a nearby town.
1501077779,71fba0a5b0e56459f322b4a270f3a4c7,DashedSentence,64,0,cond-D,4,3,by the way%2C,562,False,The orphan that slept near the windows%2C by the way%2C finally were placed with a family in a nearby town.
1501077779,71fba0a5b0e56459f322b4a270f3a4c7,DashedSentence,64,0,cond-D,4,4,finally were placed,736,False,The orphan that slept near the windows%2C by the way%2C finally were placed with a family in a nearby town.
1501077779,71fba0a5b0e56459f322b4a270f3a4c7,DashedSentence,64,0,cond-D,4,5,with a family,390,False,The orphan that slept near the windows%2C by the way%2C finally were placed with a family in a nearby town.
1501077779,71fba0a5b0e56459f322b4a270f3a4c7,DashedSentence,64,0,cond-D,4,6,in a nearby town.,394,False,The orphan that slept near the windows%2C by the way%2C finally were placed with a family in a nearby town.
# The lines below this comment are in groups of 2.
# The formats of the lines in each of these groups are as follows:
#
# Line 1:
#     Col. 1: Time results were received.
#     Col. 2: MD5 hash of participant's IP address.
#     Col. 3: Controller name.
#     Col. 4: Item number.
#     Col. 5: Element number.
#     Col. 6: Type.
#     Col. 7: Group.
#     Col. 8: Question (NULL if none).
#     Col. 9: Answer.
#     Col. 10: Whether or not answer was correct (NULL if N/A).
#     Col. 11: Time taken to answer.
# Line 2:
#     Col. 1: Time results were received.
#     Col. 2: MD5 hash of participant's IP address.
#     Col. 3: Controller name.
#     Col. 4: Item number.
#     Col. 5: Element number.
#     Col. 6: Type.
#     Col. 7: Group.
#     Col. 8: Word number.
#     Col. 9: Word.
#     Col. 10: Reading time.
#     Col. 11: Newline?
#     Col. 12: Sentence (or sentence MD5).
1501077779,71fba0a5b0e56459f322b4a270f3a4c7,Question,64,1,cond-D,4,How acceptable did you find the sentence?,1,NULL,997
1501077779,71fba0a5b0e56459f322b4a270f3a4c7,DashedSentence,457,0,filler,85,1,The customers,352,False,The customers near the display rack%2C unsurprisingly%2C wants the employee discount after waiting for an hour.
# Columns below this comment are as follows:
# 1. Time results were received.
# 2. MD5 hash of participant's IP address.
# 3. Controller name.
# 4. Item number.
# 5. Element number.
# 6. Type.
# 7. Group.
# 8. Word number.
# 9. Word.
# 10. Reading time.
# 11. Newline?
# 12. Sentence (or sentence MD5).
1501077779,71fba0a5b0e56459f322b4a270f3a4c7,DashedSentence,457,0,filler,85,2,near the display rack%2C,608,False,The customers near the display rack%2C unsurprisingly%2C wants the employee discount after waiting for an hour.
1501077779,71fba0a5b0e56459f322b4a270f3a4c7,DashedSentence,457,0,filler,85,3,unsurprisingly%2C,584,False,The customers near the display rack%2C unsurprisingly%2C wants the employee discount after waiting for an hour.
1501077779,71fba0a5b0e56459f322b4a270f3a4c7,DashedSentence,457,0,filler,85,4,wants the employee discount,1041,False,The customers near the display rack%2C unsurprisingly%2C wants the employee discount after waiting for an hour.
1501077779,71fba0a5b0e56459f322b4a270f3a4c7,DashedSentence,457,0,filler,85,5,after waiting for an hour.,473,False,The customers near the display rack%2C unsurprisingly%2C wants the employee discount after waiting for an hour.
# The lines below this comment are in groups of 2.
# The formats of the lines in each of these groups are as follows:
#
# Line 1:
#     Col. 1: Time results were received.
#     Col. 2: MD5 hash of participant's IP address.
#     Col. 3: Controller name.
#     Col. 4: Item number.
#     Col. 5: Element number.
#     Col. 6: Type.
#     Col. 7: Group.
#     Col. 8: Question (NULL if none).
#     Col. 9: Answer.
#     Col. 10: Whether or not answer was correct (NULL if N/A).
#     Col. 11: Time taken to answer.
# Line 2:
#     Col. 1: Time results were received.
#     Col. 2: MD5 hash of participant's IP address.
#     Col. 3: Controller name.
#     Col. 4: Item number.
#     Col. 5: Element number.
#     Col. 6: Type.
#     Col. 7: Group.
#     Col. 8: Word number.
#     Col. 9: Word.
#     Col. 10: Reading time.
#     Col. 11: Newline?
#     Col. 12: Sentence (or sentence MD5).
1501077779,71fba0a5b0e56459f322b4a270f3a4c7,Question,457,1,filler,85,How acceptable did you find the sentence?,2,NULL,1066
1501077779,71fba0a5b0e56459f322b4a270f3a4c7,DashedSentence,476,0,filler,104,1,The groundskeeper,585,False,The groundskeeper had ever been working in the gardens of the resort in the English countryside.
# Columns below this comment are as follows:
# 1. Time results were received.
# 2. MD5 hash of participant's IP address.
# 3. Controller name.
# 4. Item number.
# 5. Element number.
# 6. Type.
# 7. Group.
# 8. Word number.
# 9. Word.
# 10. Reading time.
# 11. Newline?
# 12. Sentence (or sentence MD5).
1501077779,71fba0a5b0e56459f322b4a270f3a4c7,DashedSentence,476,0,filler,104,2,had ever been working,1256,False,The groundskeeper had ever been working in the gardens of the resort in the English countryside.
1501077779,71fba0a5b0e56459f322b4a270f3a4c7,DashedSentence,476,0,filler,104,3,in the gardens,464,False,The groundskeeper had ever been working in the gardens of the resort in the English countryside.
1501077779,71fba0a5b0e56459f322b4a270f3a4c7,DashedSentence,476,0,filler,104,4,of the resort,618,False,The groundskeeper had ever been working in the gardens of the resort in the English countryside.
1501077779,71fba0a5b0e56459f322b4a270f3a4c7,DashedSentence,476,0,filler,104,5,in the English countryside.,532,False,The groundskeeper had ever been working in the gardens of the resort in the English countryside.
# The lines below this comment are in groups of 2.
# The formats of the lines in each of these groups are as follows:
#
# Line 1:
#     Col. 1: Time results were received.
#     Col. 2: MD5 hash of participant's IP address.
#     Col. 3: Controller name.
#     Col. 4: Item number.
#     Col. 5: Element number.
#     Col. 6: Type.
#     Col. 7: Group.
#     Col. 8: Question (NULL if none).
#     Col. 9: Answer.
#     Col. 10: Whether or not answer was correct (NULL if N/A).
#     Col. 11: Time taken to answer.
# Line 2:
#     Col. 1: Time results were received.
#     Col. 2: MD5 hash of participant's IP address.
#     Col. 3: Controller name.
#     Col. 4: Item number.
#     Col. 5: Element number.
#     Col. 6: Type.
#     Col. 7: Group.
#     Col. 8: Word number.
#     Col. 9: Word.
#     Col. 10: Reading time.
#     Col. 11: Newline?
#     Col. 12: Sentence (or sentence MD5).
1501077779,71fba0a5b0e56459f322b4a270f3a4c7,Question,476,1,filler,104,How acceptable did you find the sentence?,4,NULL,2481
1501077779,71fba0a5b0e56459f322b4a270f3a4c7,DashedSentence,283,0,cond-G,31,1,In all seriousness%2C,631,False,In all seriousness%2C the boy that sat next to the teacher clearly are excited for the assembly in the school gym.
# Columns below this comment are as follows:
# 1. Time results were received.
# 2. MD5 hash of participant's IP address.
# 3. Controller name.
# 4. Item number.
# 5. Element number.
# 6. Type.
# 7. Group.
# 8. Word number.
# 9. Word.
# 10. Reading time.
# 11. Newline?
# 12. Sentence (or sentence MD5).
1501077779,71fba0a5b0e56459f322b4a270f3a4c7,DashedSentence,283,0,cond-G,31,2,the boy,585,False,In all seriousness%2C the boy that sat next to the teacher clearly are excited for the assembly in the school gym.
1501077779,71fba0a5b0e56459f322b4a270f3a4c7,DashedSentence,283,0,cond-G,31,3,that sat next to the teacher,808,False,In all seriousness%2C the boy that sat next to the teacher clearly are excited for the assembly in the school gym.
1501077779,71fba0a5b0e56459f322b4a270f3a4c7,DashedSentence,283,0,cond-G,31,4,clearly are excited,902,False,In all seriousness%2C the boy that sat next to the teacher clearly are excited for the assembly in the school gym.
1501077779,71fba0a5b0e56459f322b4a270f3a4c7,DashedSentence,283,0,cond-G,31,5,for the assembly,266,False,In all seriousness%2C the boy that sat next to the teacher clearly are excited for the assembly in the school gym.
1501077779,71fba0a5b0e56459f322b4a270f3a4c7,DashedSentence,283,0,cond-G,31,6,in the school gym.,328,False,In all seriousness%2C the boy that sat next to the teacher clearly are excited for the assembly in the school gym.
# The lines below this comment are in groups of 2.
# The formats of the lines in each of these groups are as follows:
#
# Line 1:
#     Col. 1: Time results were received.
#     Col. 2: MD5 hash of participant's IP address.
#     Col. 3: Controller name.
#     Col. 4: Item number.
#     Col. 5: Element number.
#     Col. 6: Type.
#     Col. 7: Group.
#     Col. 8: Question (NULL if none).
#     Col. 9: Answer.
#     Col. 10: Whether or not answer was correct (NULL if N/A).
#     Col. 11: Time taken to answer.
# Line 2:
#     Col. 1: Time results were received.
#     Col. 2: MD5 hash of participant's IP address.
#     Col. 3: Controller name.
#     Col. 4: Item number.
#     Col. 5: Element number.
#     Col. 6: Type.
#     Col. 7: Group.
#     Col. 8: Word number.
#     Col. 9: Word.
#     Col. 10: Reading time.
#     Col. 11: Newline?
#     Col. 12: Sentence (or sentence MD5).
1501077779,71fba0a5b0e56459f322b4a270f3a4c7,Question,283,1,cond-G,31,How acceptable did you find the sentence?,2,NULL,1013
1501077779,71fba0a5b0e56459f322b4a270f3a4c7,DashedSentence,456,0,filler,84,1,The nurse,826,False,The nurse in the intensive unit that had worked a 10 hour shift supposedly kept herself awake by drinking coffee.
# Columns below this comment are as follows:
# 1. Time results were received.
# 2. MD5 hash of participant's IP address.
# 3. Controller name.
# 4. Item number.
# 5. Element number.
# 6. Type.
# 7. Group.
# 8. Word number.
# 9. Word.
# 10. Reading time.
# 11. Newline?
# 12. Sentence (or sentence MD5).
1501077779,71fba0a5b0e56459f322b4a270f3a4c7,DashedSentence,456,0,filler,84,2,in the intensive unit,600,False,The nurse in the intensive unit that had worked a 10 hour shift supposedly kept herself awake by drinking coffee.
1501077779,71fba0a5b0e56459f322b4a270f3a4c7,DashedSentence,456,0,filler,84,3,that had worked,734,False,The nurse in the intensive unit that had worked a 10 hour shift supposedly kept herself awake by drinking coffee.
1501077779,71fba0a5b0e56459f322b4a270f3a4c7,DashedSentence,456,0,filler,84,4,a 10 hour shift,746,False,The nurse in the intensive unit that had worked a 10 hour shift supposedly kept herself awake by drinking coffee.
1501077779,71fba0a5b0e56459f322b4a270f3a4c7,DashedSentence,456,0,filler,84,5,supposedly kept herself awake,792,False,The nurse in the intensive unit that had worked a 10 hour shift supposedly kept herself awake by drinking coffee.
1501077779,71fba0a5b0e56459f322b4a270f3a4c7,DashedSentence,456,0,filler,84,6,by drinking coffee.,422,False,The nurse in the intensive unit that had worked a 10 hour shift supposedly kept herself awake by drinking coffee.
# The lines below this comment are in groups of 2.
# The formats of the lines in each of these groups are as follows:
#
# Line 1:
#     Col. 1: Time results were received.
#     Col. 2: MD5 hash of participant's IP address.
#     Col. 3: Controller name.
#     Col. 4: Item number.
#     Col. 5: Element number.
#     Col. 6: Type.
#     Col. 7: Group.
#     Col. 8: Question (NULL if none).
#     Col. 9: Answer.
#     Col. 10: Whether or not answer was correct (NULL if N/A).
#     Col. 11: Time taken to answer.
# Line 2:
#     Col. 1: Time results were received.
#     Col. 2: MD5 hash of participant's IP address.
#     Col. 3: Controller name.
#     Col. 4: Item number.
#     Col. 5: Element number.
#     Col. 6: Type.
#     Col. 7: Group.
#     Col. 8: Word number.
#     Col. 9: Word.
#     Col. 10: Reading time.
#     Col. 11: Newline?
#     Col. 12: Sentence (or sentence MD5).
1501077779,71fba0a5b0e56459f322b4a270f3a4c7,Question,456,1,filler,84,How acceptable did you find the sentence?,7,NULL,1362
1501077779,71fba0a5b0e56459f322b4a270f3a4c7,DashedSentence,430,0,filler,58,1,The spies,366,False,The spies that are snooping in the office apparently found a secret document describing the military plans.
# Columns below this comment are as follows:
# 1. Time results were received.
# 2. MD5 hash of participant's IP address.
# 3. Controller name.
# 4. Item number.
# 5. Element number.
# 6. Type.
# 7. Group.
# 8. Word number.
# 9. Word.
# 10. Reading time.
# 11. Newline?
# 12. Sentence (or sentence MD5).
1501077779,71fba0a5b0e56459f322b4a270f3a4c7,DashedSentence,430,0,filler,58,2,that are snooping,682,False,The spies that are snooping in the office apparently found a secret document describing the military plans.
1501077779,71fba0a5b0e56459f322b4a270f3a4c7,DashedSentence,430,0,filler,58,3,in the office,464,False,The spies that are snooping in the office apparently found a secret document describing the military plans.
1501077779,71fba0a5b0e56459f322b4a270f3a4c7,DashedSentence,430,0,filler,58,4,apparently found,518,False,The spies that are snooping in the office apparently found a secret document describing the military plans.
1501077779,71fba0a5b0e56459f322b4a270f3a4c7,DashedSentence,430,0,filler,58,5,a secret document,496,False,The spies that are snooping in the office apparently found a secret document describing the military plans.
1501077779,71fba0a5b0e56459f322b4a270f3a4c7,DashedSentence,430,0,filler,58,6,describing the military plans.,674,False,The spies that are snooping in the office apparently found a secret document describing the military plans.
# The lines below this comment are in groups of 2.
# The formats of the lines in each of these groups are as follows:
#
# Line 1:
#     Col. 1: Time results were received.
#     Col. 2: MD5 hash of participant's IP address.
#     Col. 3: Controller name.
#     Col. 4: Item number.
#     Col. 5: Element number.
#     Col. 6: Type.
#     Col. 7: Group.
#     Col. 8: Question (NULL if none).
#     Col. 9: Answer.
#     Col. 10: Whether or not answer was correct (NULL if N/A).
#     Col. 11: Time taken to answer.
# Line 2:
#     Col. 1: Time results were received.
#     Col. 2: MD5 hash of participant's IP address.
#     Col. 3: Controller name.
#     Col. 4: Item number.
#     Col. 5: Element number.
#     Col. 6: Type.
#     Col. 7: Group.
#     Col. 8: Word number.
#     Col. 9: Word.
#     Col. 10: Reading time.
#     Col. 11: Newline?
#     Col. 12: Sentence (or sentence MD5).
1501077779,71fba0a5b0e56459f322b4a270f3a4c7,Question,430,1,filler,58,How acceptable did you find the sentence?,7,NULL,754
1501077779,71fba0a5b0e56459f322b4a270f3a4c7,DashedSentence,375,0,cond-C,43,1,The musician,384,False,The musician that played for the dancer%2C by the way%2C finally have found the right song to play at next week's show.
# Columns below this comment are as follows:
# 1. Time results were received.
# 2. MD5 hash of participant's IP address.
# 3. Controller name.
# 4. Item number.
# 5. Element number.
# 6. Type.
# 7. Group.
# 8. Word number.
# 9. Word.
# 10. Reading time.
# 11. Newline?
# 12. Sentence (or sentence MD5).
1501077779,71fba0a5b0e56459f322b4a270f3a4c7,DashedSentence,375,0,cond-C,43,2,that played for the dancer%2C,828,False,The musician that played for the dancer%2C by the way%2C finally have found the right song to play at next week's show.
1501077779,71fba0a5b0e56459f322b4a270f3a4c7,DashedSentence,375,0,cond-C,43,3,by the way%2C,556,False,The musician that played for the dancer%2C by the way%2C finally have found the right song to play at next week's show.
1501077779,71fba0a5b0e56459f322b4a270f3a4c7,DashedSentence,375,0,cond-C,43,4,finally have found,626,False,The musician that played for the dancer%2C by the way%2C finally have found the right song to play at next week's show.
1501077779,71fba0a5b0e56459f322b4a270f3a4c7,DashedSentence,375,0,cond-C,43,5,the right song,366,False,The musician that played for the dancer%2C by the way%2C finally have found the right song to play at next week's show.
1501077779,71fba0a5b0e56459f322b4a270f3a4c7,DashedSentence,375,0,cond-C,43,6,to play at next week's show.,482,False,The musician that played for the dancer%2C by the way%2C finally have found the right song to play at next week's show.
# The lines below this comment are in groups of 2.
# The formats of the lines in each of these groups are as follows:
#
# Line 1:
#     Col. 1: Time results were received.
#     Col. 2: MD5 hash of participant's IP address.
#     Col. 3: Controller name.
#     Col. 4: Item number.
#     Col. 5: Element number.
#     Col. 6: Type.
#     Col. 7: Group.
#     Col. 8: Question (NULL if none).
#     Col. 9: Answer.
#     Col. 10: Whether or not answer was correct (NULL if N/A).
#     Col. 11: Time taken to answer.
# Line 2:
#     Col. 1: Time results were received.
#     Col. 2: MD5 hash of participant's IP address.
#     Col. 3: Controller name.
#     Col. 4: Item number.
#     Col. 5: Element number.
#     Col. 6: Type.
#     Col. 7: Group.
#     Col. 8: Word number.
#     Col. 9: Word.
#     Col. 10: Reading time.
#     Col. 11: Newline?
#     Col. 12: Sentence (or sentence MD5).
1501077779,71fba0a5b0e56459f322b4a270f3a4c7,Question,375,1,cond-C,43,How acceptable did you find the sentence?,2,NULL,1123
1501077779,71fba0a5b0e56459f322b4a270f3a4c7,DashedSentence,475,0,filler,103,1,The curator%2C,409,False,The curator%2C most importantly%2C apparently found anywhere to put the new painting in the new modern wing of the museum.
# Columns below this comment are as follows:
# 1. Time results were received.
# 2. MD5 hash of participant's IP address.
# 3. Controller name.
# 4. Item number.
# 5. Element number.
# 6. Type.
# 7. Group.
# 8. Word number.
# 9. Word.
# 10. Reading time.
# 11. Newline?
# 12. Sentence (or sentence MD5).
1501077779,71fba0a5b0e56459f322b4a270f3a4c7,DashedSentence,475,0,filler,103,2,most importantly%2C,536,False,The curator%2C most importantly%2C apparently found anywhere to put the new painting in the new modern wing of the museum.
1501077779,71fba0a5b0e56459f322b4a270f3a4c7,DashedSentence,475,0,filler,103,3,apparently found anywhere,1031,False,The curator%2C most importantly%2C apparently found anywhere to put the new painting in the new modern wing of the museum.
1501077779,71fba0a5b0e56459f322b4a270f3a4c7,DashedSentence,475,0,filler,103,4,to put the new painting,994,False,The curator%2C most importantly%2C apparently found anywhere to put the new painting in the new modern wing of the museum.
1501077779,71fba0a5b0e56459f322b4a270f3a4c7,DashedSentence,475,0,filler,103,5,in the new modern wing,536,False,The curator%2C most importantly%2C apparently found anywhere to put the new painting in the new modern wing of the museum.
1501077779,71fba0a5b0e56459f322b4a270f3a4c7,DashedSentence,475,0,filler,103,6,of the museum.,542,False,The curator%2C most importantly%2C apparently found anywhere to put the new painting in the new modern wing of the museum.
# The lines below this comment are in groups of 2.
# The formats of the lines in each of these groups are as follows:
#
# Line 1:
#     Col. 1: Time results were received.
#     Col. 2: MD5 hash of participant's IP address.
#     Col. 3: Controller name.
#     Col. 4: Item number.
#     Col. 5: Element number.
#     Col. 6: Type.
#     Col. 7: Group.
#     Col. 8: Question (NULL if none).
#     Col. 9: Answer.
#     Col. 10: Whether or not answer was correct (NULL if N/A).
#     Col. 11: Time taken to answer.
# Line 2:
#     Col. 1: Time results were received.
#     Col. 2: MD5 hash of participant's IP address.
#     Col. 3: Controller name.
#     Col. 4: Item number.
#     Col. 5: Element number.
#     Col. 6: Type.
#     Col. 7: Group.
#     Col. 8: Word number.
#     Col. 9: Word.
#     Col. 10: Reading time.
#     Col. 11: Newline?
#     Col. 12: Sentence (or sentence MD5).
1501077779,71fba0a5b0e56459f322b4a270f3a4c7,Question,475,1,filler,103,How acceptable did you find the sentence?,2,NULL,1141
1501077779,71fba0a5b0e56459f322b4a270f3a4c7,DashedSentence,46,0,cond-B,2,1,The truck,441,False,The truck that parked beside the motorcycles%2C to be honest%2C probably was refurbished by a mechanic without much training.
# Columns below this comment are as follows:
# 1. Time results were received.
# 2. MD5 hash of participant's IP address.
# 3. Controller name.
# 4. Item number.
# 5. Element number.
# 6. Type.
# 7. Group.
# 8. Word number.
# 9. Word.
# 10. Reading time.
# 11. Newline?
# 12. Sentence (or sentence MD5).
1501077779,71fba0a5b0e56459f322b4a270f3a4c7,DashedSentence,46,0,cond-B,2,2,that parked beside the motorcycles%2C,983,False,The truck that parked beside the motorcycles%2C to be honest%2C probably was refurbished by a mechanic without much training.
1501077779,71fba0a5b0e56459f322b4a270f3a4c7,DashedSentence,46,0,cond-B,2,3,to be honest%2C,593,False,The truck that parked beside the motorcycles%2C to be honest%2C probably was refurbished by a mechanic without much training.
1501077779,71fba0a5b0e56459f322b4a270f3a4c7,DashedSentence,46,0,cond-B,2,4,probably was refurbished,656,False,The truck that parked beside the motorcycles%2C to be honest%2C probably was refurbished by a mechanic without much training.
1501077779,71fba0a5b0e56459f322b4a270f3a4c7,DashedSentence,46,0,cond-B,2,5,by a mechanic,423,False,The truck that parked beside the motorcycles%2C to be honest%2C probably was refurbished by a mechanic without much training.
1501077779,71fba0a5b0e56459f322b4a270f3a4c7,DashedSentence,46,0,cond-B,2,6,without much training.,633,False,The truck that parked beside the motorcycles%2C to be honest%2C probably was refurbished by a mechanic without much training.
# The lines below this comment are in groups of 2.
# The formats of the lines in each of these groups are as follows:
#
# Line 1:
#     Col. 1: Time results were received.
#     Col. 2: MD5 hash of participant's IP address.
#     Col. 3: Controller name.
#     Col. 4: Item number.
#     Col. 5: Element number.
#     Col. 6: Type.
#     Col. 7: Group.
#     Col. 8: Question (NULL if none).
#     Col. 9: Answer.
#     Col. 10: Whether or not answer was correct (NULL if N/A).
#     Col. 11: Time taken to answer.
# Line 2:
#     Col. 1: Time results were received.
#     Col. 2: MD5 hash of participant's IP address.
#     Col. 3: Controller name.
#     Col. 4: Item number.
#     Col. 5: Element number.
#     Col. 6: Type.
#     Col. 7: Group.
#     Col. 8: Word number.
#     Col. 9: Word.
#     Col. 10: Reading time.
#     Col. 11: Newline?
#     Col. 12: Sentence (or sentence MD5).
1501077779,71fba0a5b0e56459f322b4a270f3a4c7,Question,46,1,cond-B,2,How acceptable did you find the sentence?,6,NULL,1145
1501077779,71fba0a5b0e56459f322b4a270f3a4c7,DashedSentence,491,0,filler,119,1,The seamstress,455,False,The seamstress at the factory that was built last year supposedly taught himself how to stitch at a young age.
# Columns below this comment are as follows:
# 1. Time results were received.
# 2. MD5 hash of participant's IP address.
# 3. Controller name.
# 4. Item number.
# 5. Element number.
# 6. Type.
# 7. Group.
# 8. Word number.
# 9. Word.
# 10. Reading time.
# 11. Newline?
# 12. Sentence (or sentence MD5).
1501077779,71fba0a5b0e56459f322b4a270f3a4c7,DashedSentence,491,0,filler,119,2,at the factory,489,False,The seamstress at the factory that was built last year supposedly taught himself how to stitch at a young age.
1501077779,71fba0a5b0e56459f322b4a270f3a4c7,DashedSentence,491,0,filler,119,3,that was built last year,752,False,The seamstress at the factory that was built last year supposedly taught himself how to stitch at a young age.
1501077779,71fba0a5b0e56459f322b4a270f3a4c7,DashedSentence,491,0,filler,119,4,supposedly taught himself,678,False,The seamstress at the factory that was built last year supposedly taught himself how to stitch at a young age.
1501077779,71fba0a5b0e56459f322b4a270f3a4c7,DashedSentence,491,0,filler,119,5,how to stitch,458,False,The seamstress at the factory that was built last year supposedly taught himself how to stitch at a young age.
1501077779,71fba0a5b0e56459f322b4a270f3a4c7,DashedSentence,491,0,filler,119,6,at a young age.,336,False,The seamstress at the factory that was built last year supposedly taught himself how to stitch at a young age.
# The lines below this comment are in groups of 2.
# The formats of the lines in each of these groups are as follows:
#
# Line 1:
#     Col. 1: Time results were received.
#     Col. 2: MD5 hash of participant's IP address.
#     Col. 3: Controller name.
#     Col. 4: Item number.
#     Col. 5: Element number.
#     Col. 6: Type.
#     Col. 7: Group.
#     Col. 8: Question (NULL if none).
#     Col. 9: Answer.
#     Col. 10: Whether or not answer was correct (NULL if N/A).
#     Col. 11: Time taken to answer.
# Line 2:
#     Col. 1: Time results were received.
#     Col. 2: MD5 hash of participant's IP address.
#     Col. 3: Controller name.
#     Col. 4: Item number.
#     Col. 5: Element number.
#     Col. 6: Type.
#     Col. 7: Group.
#     Col. 8: Word number.
#     Col. 9: Word.
#     Col. 10: Reading time.
#     Col. 11: Newline?
#     Col. 12: Sentence (or sentence MD5).
1501077779,71fba0a5b0e56459f322b4a270f3a4c7,Question,491,1,filler,119,How acceptable did you find the sentence?,2,NULL,1128
1501077779,71fba0a5b0e56459f322b4a270f3a4c7,DashedSentence,460,0,filler,88,1,The counselors,462,False,The counselors at the summer camp reportedly was caught sneaking out of the dormitories to go to town.
# Columns below this comment are as follows:
# 1. Time results were received.
# 2. MD5 hash of participant's IP address.
# 3. Controller name.
# 4. Item number.
# 5. Element number.
# 6. Type.
# 7. Group.
# 8. Word number.
# 9. Word.
# 10. Reading time.
# 11. Newline?
# 12. Sentence (or sentence MD5).
1501077779,71fba0a5b0e56459f322b4a270f3a4c7,DashedSentence,460,0,filler,88,2,at the summer camp,562,False,The counselors at the summer camp reportedly was caught sneaking out of the dormitories to go to town.
1501077779,71fba0a5b0e56459f322b4a270f3a4c7,DashedSentence,460,0,filler,88,3,reportedly was caught,1078,False,The counselors at the summer camp reportedly was caught sneaking out of the dormitories to go to town.
1501077779,71fba0a5b0e56459f322b4a270f3a4c7,DashedSentence,460,0,filler,88,4,sneaking out,408,False,The counselors at the summer camp reportedly was caught sneaking out of the dormitories to go to town.
1501077779,71fba0a5b0e56459f322b4a270f3a4c7,DashedSentence,460,0,filler,88,5,of the dormitories,418,False,The counselors at the summer camp reportedly was caught sneaking out of the dormitories to go to town.
1501077779,71fba0a5b0e56459f322b4a270f3a4c7,DashedSentence,460,0,filler,88,6,to go to town.,376,False,The counselors at the summer camp reportedly was caught sneaking out of the dormitories to go to town.
# The lines below this comment are in groups of 2.
# The formats of the lines in each of these groups are as follows:
#
# Line 1:
#     Col. 1: Time results were received.
#     Col. 2: MD5 hash of participant's IP address.
#     Col. 3: Controller name.
#     Col. 4: Item number.
#     Col. 5: Element number.
#     Col. 6: Type.
#     Col. 7: Group.
#     Col. 8: Question (NULL if none).
#     Col. 9: Answer.
#     Col. 10: Whether or not answer was correct (NULL if N/A).
#     Col. 11: Time taken to answer.
# Line 2:
#     Col. 1: Time results were received.
#     Col. 2: MD5 hash of participant's IP address.
#     Col. 3: Controller name.
#     Col. 4: Item number.
#     Col. 5: Element number.
#     Col. 6: Type.
#     Col. 7: Group.
#     Col. 8: Word number.
#     Col. 9: Word.
#     Col. 10: Reading time.
#     Col. 11: Newline?
#     Col. 12: Sentence (or sentence MD5).
1501077779,71fba0a5b0e56459f322b4a270f3a4c7,Question,460,1,filler,88,How acceptable did you find the sentence?,2,NULL,2319
1501077779,71fba0a5b0e56459f322b4a270f3a4c7,DashedSentence,37,0,cond-A,1,1,The busboy,504,False,The busboy that worked with the server%2C by the way%2C probably is tired of the patrons that didn't tip well.
# Columns below this comment are as follows:
# 1. Time results were received.
# 2. MD5 hash of participant's IP address.
# 3. Controller name.
# 4. Item number.
# 5. Element number.
# 6. Type.
# 7. Group.
# 8. Word number.
# 9. Word.
# 10. Reading time.
# 11. Newline?
# 12. Sentence (or sentence MD5).
1501077779,71fba0a5b0e56459f322b4a270f3a4c7,DashedSentence,37,0,cond-A,1,2,that worked with the server%2C,822,False,The busboy that worked with the server%2C by the way%2C probably is tired of the patrons that didn't tip well.
1501077779,71fba0a5b0e56459f322b4a270f3a4c7,DashedSentence,37,0,cond-A,1,3,by the way%2C,528,False,The busboy that worked with the server%2C by the way%2C probably is tired of the patrons that didn't tip well.
1501077779,71fba0a5b0e56459f322b4a270f3a4c7,DashedSentence,37,0,cond-A,1,4,probably is tired,1098,False,The busboy that worked with the server%2C by the way%2C probably is tired of the patrons that didn't tip well.
1501077779,71fba0a5b0e56459f322b4a270f3a4c7,DashedSentence,37,0,cond-A,1,5,of the patrons,791,False,The busboy that worked with the server%2C by the way%2C probably is tired of the patrons that didn't tip well.
1501077779,71fba0a5b0e56459f322b4a270f3a4c7,DashedSentence,37,0,cond-A,1,6,that didn't tip well.,569,False,The busboy that worked with the server%2C by the way%2C probably is tired of the patrons that didn't tip well.
# The lines below this comment are in groups of 2.
# The formats of the lines in each of these groups are as follows:
#
# Line 1:
#     Col. 1: Time results were received.
#     Col. 2: MD5 hash of participant's IP address.
#     Col. 3: Controller name.
#     Col. 4: Item number.
#     Col. 5: Element number.
#     Col. 6: Type.
#     Col. 7: Group.
#     Col. 8: Question (NULL if none).
#     Col. 9: Answer.
#     Col. 10: Whether or not answer was correct (NULL if N/A).
#     Col. 11: Time taken to answer.
# Line 2:
#     Col. 1: Time results were received.
#     Col. 2: MD5 hash of participant's IP address.
#     Col. 3: Controller name.
#     Col. 4: Item number.
#     Col. 5: Element number.
#     Col. 6: Type.
#     Col. 7: Group.
#     Col. 8: Word number.
#     Col. 9: Word.
#     Col. 10: Reading time.
#     Col. 11: Newline?
#     Col. 12: Sentence (or sentence MD5).
1501077779,71fba0a5b0e56459f322b4a270f3a4c7,Question,37,1,cond-A,1,How acceptable did you find the sentence?,5,NULL,1090
1501077779,71fba0a5b0e56459f322b4a270f3a4c7,DashedSentence,441,0,filler,69,1,The fugitives,397,False,The fugitives supposedly don't have any idea about how to build a fire despite escaping to the wilderness.
# Columns below this comment are as follows:
# 1. Time results were received.
# 2. MD5 hash of participant's IP address.
# 3. Controller name.
# 4. Item number.
# 5. Element number.
# 6. Type.
# 7. Group.
# 8. Word number.
# 9. Word.
# 10. Reading time.
# 11. Newline?
# 12. Sentence (or sentence MD5).
1501077779,71fba0a5b0e56459f322b4a270f3a4c7,DashedSentence,441,0,filler,69,2,supposedly don't have,783,False,The fugitives supposedly don't have any idea about how to build a fire despite escaping to the wilderness.
1501077779,71fba0a5b0e56459f322b4a270f3a4c7,DashedSentence,441,0,filler,69,3,any idea about,682,False,The fugitives supposedly don't have any idea about how to build a fire despite escaping to the wilderness.
1501077779,71fba0a5b0e56459f322b4a270f3a4c7,DashedSentence,441,0,filler,69,4,how to build a fire,495,False,The fugitives supposedly don't have any idea about how to build a fire despite escaping to the wilderness.
1501077779,71fba0a5b0e56459f322b4a270f3a4c7,DashedSentence,441,0,filler,69,5,despite escaping,681,False,The fugitives supposedly don't have any idea about how to build a fire despite escaping to the wilderness.
1501077779,71fba0a5b0e56459f322b4a270f3a4c7,DashedSentence,441,0,filler,69,6,to the wilderness.,471,False,The fugitives supposedly don't have any idea about how to build a fire despite escaping to the wilderness.
# The lines below this comment are in groups of 2.
# The formats of the lines in each of these groups are as follows:
#
# Line 1:
#     Col. 1: Time results were received.
#     Col. 2: MD5 hash of participant's IP address.
#     Col. 3: Controller name.
#     Col. 4: Item number.
#     Col. 5: Element number.
#     Col. 6: Type.
#     Col. 7: Group.
#     Col. 8: Question (NULL if none).
#     Col. 9: Answer.
#     Col. 10: Whether or not answer was correct (NULL if N/A).
#     Col. 11: Time taken to answer.
# Line 2:
#     Col. 1: Time results were received.
#     Col. 2: MD5 hash of participant's IP address.
#     Col. 3: Controller name.
#     Col. 4: Item number.
#     Col. 5: Element number.
#     Col. 6: Type.
#     Col. 7: Group.
#     Col. 8: Word number.
#     Col. 9: Word.
#     Col. 10: Reading time.
#     Col. 11: Newline?
#     Col. 12: Sentence (or sentence MD5).
1501077779,71fba0a5b0e56459f322b4a270f3a4c7,Question,441,1,filler,69,How acceptable did you find the sentence?,7,NULL,949
1501077779,71fba0a5b0e56459f322b4a270f3a4c7,DashedSentence,137,0,cond-E,13,1,To be fair%2C,471,False,To be fair%2C the publicist that stood behind the politician reportedly was nodding at every word in the speech.
# Columns below this comment are as follows:
# 1. Time results were received.
# 2. MD5 hash of participant's IP address.
# 3. Controller name.
# 4. Item number.
# 5. Element number.
# 6. Type.
# 7. Group.
# 8. Word number.
# 9. Word.
# 10. Reading time.
# 11. Newline?
# 12. Sentence (or sentence MD5).
1501077779,71fba0a5b0e56459f322b4a270f3a4c7,DashedSentence,137,0,cond-E,13,2,the publicist,456,False,To be fair%2C the publicist that stood behind the politician reportedly was nodding at every word in the speech.
1501077779,71fba0a5b0e56459f322b4a270f3a4c7,DashedSentence,137,0,cond-E,13,3,that stood behind the politician,913,False,To be fair%2C the publicist that stood behind the politician reportedly was nodding at every word in the speech.
